1/9/2013 7:48 AM
nDataPerSetPoint: 40
Temperature Calibration
Reference(C), FastResp 2943(Ohm)
29.854542 	55.153201 
29.854825 	55.153265 
29.855129 	55.153333 
29.855402 	55.153403 
29.855701 	55.153471 
29.855984 	55.153537 
29.856250 	55.153607 
29.856492 	55.153641 
29.856704 	55.153669 
29.856879 	55.153701 
29.857034 	55.153755 
29.857170 	55.153756 
29.857294 	55.153731 
29.857415 	55.153756 
29.857516 	55.153804 
29.857628 	55.153822 
29.857740 	55.153832 
29.857857 	55.153854 
29.857982 	55.153885 
29.858122 	55.153908 
29.858255 	55.153929 
29.858415 	55.153964 
29.858557 	55.154016 
29.858714 	55.154066 
29.858864 	55.154118 
29.858991 	55.154161 
29.859098 	55.154185 
29.859209 	55.154215 
29.859329 	55.154199 
29.859438 	55.154172 
29.859546 	55.154184 
29.859659 	55.154191 
29.859742 	55.154175 
29.859833 	55.154173 
29.859936 	55.154174 
29.860062 	55.154169 
29.860196 	55.154162 
29.860358 	55.154185 
29.860517 	55.154220 
29.860682 	55.154252 
19.868321 	53.285845 
19.868506 	53.285874 
19.868668 	53.285933 
19.868820 	53.286019 
19.868956 	53.286058 
19.869082 	53.286086 
19.869191 	53.286097 
19.869293 	53.286075 
19.869400 	53.286039 
19.869491 	53.286084 
19.869580 	53.286157 
19.869670 	53.286247 
19.869760 	53.286334 
19.869875 	53.286364 
19.870024 	53.286330 
19.870201 	53.286323 
19.870418 	53.286323 
19.870641 	53.286341 
19.870872 	53.286330 
19.871092 	53.286324 
19.871320 	53.286331 
19.871539 	53.286360 
19.871740 	53.286389 
19.871910 	53.286390 
19.872083 	53.286398 
19.872262 	53.286413 
19.872425 	53.286435 
19.872578 	53.286447 
19.872709 	53.286468 
19.872825 	53.286489 
19.872908 	53.286514 
19.872993 	53.286487 
19.873087 	53.286445 
19.873180 	53.286391 
19.873276 	53.286377 
19.873383 	53.286389 
19.873511 	53.286377 
19.873636 	53.286370 
19.873760 	53.286375 
19.873887 	53.286351 
9.880298 	51.411674 
9.880354 	51.411704 
9.880438 	51.411705 
9.880522 	51.411729 
9.880604 	51.411742 
9.880647 	51.411767 
9.880659 	51.411742 
9.880646 	51.411727 
9.880638 	51.411692 
9.880634 	51.411617 
9.880612 	51.411575 
9.880590 	51.411562 
9.880582 	51.411531 
9.880613 	51.411516 
9.880681 	51.411527 
9.880770 	51.411546 
9.880919 	51.411509 
9.880919 	51.411508 
9.881335 	51.411515 
9.881576 	51.411538 
9.881814 	51.411556 
9.882071 	51.411583 
9.882310 	51.411617 
9.882544 	51.411636 
9.882759 	51.411609 
9.882951 	51.411611 
9.883144 	51.411627 
9.883300 	51.411685 
9.883445 	51.411767 
9.883569 	51.411817 
9.883693 	51.411845 
9.883816 	51.411851 
9.883908 	51.411874 
9.884005 	51.411864 
9.884005 	51.411862 
9.884219 	51.411861 
9.884366 	51.411893 
9.884512 	51.411949 
9.884676 	51.411987 
9.884863 	51.412023 
-0.106986 	49.530960 
-0.106740 	49.530988 
-0.106539 	49.531010 
-0.106377 	49.531019 
-0.106285 	49.531033 
-0.106226 	49.531035 
-0.106172 	49.531039 
-0.106138 	49.531057 
-0.106103 	49.531063 
-0.106071 	49.531077 
-0.106024 	49.531123 
-0.105947 	49.531150 
-0.105822 	49.531114 
-0.105668 	49.531065 
-0.105516 	49.531039 
-0.105351 	49.531066 
-0.105142 	49.531069 
-0.104897 	49.531103 
-0.104653 	49.531139 
-0.104405 	49.531177 
-0.104195 	49.531204 
-0.104023 	49.531232 
-0.103889 	49.531256 
-0.103804 	49.531286 
-0.103681 	49.531331 
-0.103571 	49.531385 
-0.103470 	49.531446 
-0.103353 	49.531509 
-0.103221 	49.531572 
-0.103084 	49.531635 
-0.102972 	49.531701 
-0.102865 	49.531759 
-0.102744 	49.531836 
-0.102584 	49.531914 
-0.102393 	49.531987 
-0.102174 	49.532046 
-0.101955 	49.532105 
-0.101724 	49.532147 
-0.101475 	49.532196 
-0.101226 	49.532237 
-10.086178 	47.646679 
-10.086126 	47.646625 
-10.086077 	47.646566 
-10.086028 	47.646493 
-10.085972 	47.646450 
-10.085923 	47.646411 
-10.085914 	47.646375 
-10.085919 	47.646333 
-10.085884 	47.646284 
-10.085872 	47.646220 
-10.085851 	47.646161 
-10.085781 	47.646132 
-10.085706 	47.646113 
-10.085631 	47.646092 
-10.085551 	47.646079 
-10.085439 	47.646084 
-10.085316 	47.646092 
-10.085167 	47.646086 
-10.084988 	47.646069 
-10.084827 	47.646059 
-10.084657 	47.646064 
-10.084491 	47.646081 
-10.084319 	47.646103 
-10.084163 	47.646116 
-10.084016 	47.646123 
-10.083895 	47.646146 
-10.083789 	47.646166 
-10.083675 	47.646190 
-10.083569 	47.646208 
-10.083464 	47.646226 
-10.083368 	47.646252 
-10.083294 	47.646282 
-10.083167 	47.646317 
-10.083041 	47.646381 
-10.082939 	47.646429 
-10.082860 	47.646480 
-10.082774 	47.646527 
-10.082682 	47.646554 
-10.082598 	47.646575 
-10.082526 	47.646603 
-20.076250 	45.754495 
-20.076068 	45.754619 
-20.075926 	45.754715 
-20.075819 	45.754771 
-20.075737 	45.754820 
-20.075650 	45.754863 
-20.075569 	45.754902 
-20.075482 	45.754916 
-20.075389 	45.754917 
-20.075286 	45.754908 
-20.075177 	45.754883 
-20.075061 	45.754853 
-20.074943 	45.754820 
-20.074797 	45.754790 
-20.074632 	45.754761 
-20.074463 	45.754740 
-20.074325 	45.754724 
-20.074229 	45.754723 
-20.074146 	45.754726 
-20.074065 	45.754725 
-20.073936 	45.754730 
-20.073799 	45.754738 
-20.073717 	45.754744 
-20.073664 	45.754751 
-20.073601 	45.754756 
-20.073558 	45.754765 
-20.073499 	45.754775 
-20.073465 	45.754781 
-20.073450 	45.754785 
-20.073469 	45.754791 
-20.073519 	45.754797 
-20.073569 	45.754803 
-20.073612 	45.754829 
-20.073612 	45.754846 
-20.073591 	45.754869 
-20.073575 	45.754903 
-20.073544 	45.754930 
-20.073515 	45.754985 
-20.073465 	45.755050 
-20.073400 	45.755119 
-30.059836 	43.857166 
-30.059842 	43.857167 
-30.059794 	43.857163 
-30.059720 	43.857154 
-30.059647 	43.857145 
-30.059596 	43.857124 
-30.059519 	43.857100 
-30.059439 	43.857080 
-30.059388 	43.857055 
-30.059345 	43.857047 
-30.059345 	43.857035 
-30.059247 	43.857024 
-30.059180 	43.857017 
-30.059103 	43.857040 
-30.059044 	43.857063 
-30.058975 	43.857087 
-30.058925 	43.857119 
-30.058884 	43.857154 
-30.058821 	43.857189 
-30.058763 	43.857237 
-30.058689 	43.857290 
-30.058592 	43.857350 
-30.058514 	43.857410 
-30.058445 	43.857465 
-30.058373 	43.857512 
-30.058313 	43.857550 
-30.058275 	43.857581 
-30.058246 	43.857590 
-30.058202 	43.857581 
-30.058098 	43.857583 
-30.058007 	43.857616 
-30.057886 	43.857664 
-30.057809 	43.857722 
-30.057760 	43.857783 
-30.057705 	43.857829 
-30.057627 	43.857866 
-30.057551 	43.857888 
-30.057442 	43.857914 
-30.057300 	43.857946 
-30.057173 	43.857975 
-40.051855 	41.951795 
-40.051580 	41.951846 
-40.051311 	41.951901 
-40.051053 	41.951955 
-40.050823 	41.952008 
-40.050575 	41.952068 
-40.050318 	41.952129 
-40.050041 	41.952186 
-40.049756 	41.952238 
-40.049469 	41.952308 
-40.049155 	41.952386 
-40.048851 	41.952455 
-40.048558 	41.952518 
-40.048271 	41.952582 
-40.047993 	41.952629 
-40.047728 	41.952671 
-40.047728 	41.952703 
-40.047205 	41.952741 
-40.046954 	41.952782 
-40.046684 	41.952824 
-40.046391 	41.952866 
-40.046105 	41.952900 
-40.045833 	41.952941 
-40.045571 	41.952970 
-40.045336 	41.953017 
-40.045091 	41.953083 
-40.044873 	41.953157 
-40.044656 	41.953226 
-40.044656 	41.953293 
-40.044161 	41.953345 
-40.043924 	41.953391 
-40.043689 	41.953475 
-40.043448 	41.953563 
-40.043204 	41.953646 
-40.042958 	41.953724 
-40.042733 	41.953763 
-40.042536 	41.953798 
-40.042365 	41.953910 
-40.042234 	41.954011 
-40.042102 	41.954089 
-50.042138 	40.042818 
-50.041748 	40.042933 
-50.041359 	40.043049 
-50.040993 	40.043158 
-50.040675 	40.043242 
-50.040372 	40.043363 
-50.040096 	40.043478 
-50.039870 	40.043583 
-50.039667 	40.043639 
-50.039522 	40.043680 
-50.039418 	40.043767 
-50.039341 	40.043862 
-50.039284 	40.043943 
-50.039234 	40.044021 
-50.039167 	40.044087 
-50.039093 	40.044126 
-50.039013 	40.044191 
-50.038940 	40.044263 
-50.038871 	40.044348 
-50.038818 	40.044391 
-50.038794 	40.044414 
-50.038778 	40.044442 
-50.038754 	40.044437 
-50.038744 	40.044437 
-50.038750 	40.044377 
-50.038761 	40.044311 
-50.038787 	40.044277 
-50.038839 	40.044252 
-50.038894 	40.044252 
-50.038940 	40.044275 
-50.038981 	40.044267 
-50.039007 	40.044257 
-50.039030 	40.044232 
-50.039039 	40.044252 
-50.039011 	40.044288 
-50.038983 	40.044282 
-50.038947 	40.044279 
-50.038897 	40.044245 
-50.038861 	40.044252 
-50.038785 	40.044268 
-60.029598 	38.127321 
-60.029382 	38.127384 
-60.029172 	38.127463 
-60.028985 	38.127562 
-60.028801 	38.127664 
-60.028589 	38.127766 
-60.028380 	38.127833 
-60.028380 	38.127891 
-60.028003 	38.127935 
-60.027916 	38.127947 
-60.027849 	38.127976 
-60.027773 	38.128036 
-60.027706 	38.127993 
-60.027646 	38.127989 
-60.027655 	38.127970 
-60.027638 	38.127978 
-60.027598 	38.128013 
-60.027563 	38.128030 
-60.027548 	38.128039 
-60.027571 	38.128056 
-60.027632 	38.128064 
-60.027720 	38.128051 
-60.027858 	38.128035 
-60.028037 	38.128001 
-60.028219 	38.127985 
-60.028408 	38.127997 
-60.028607 	38.128054 
-60.028790 	38.128131 
-60.028976 	38.128220 
-60.029129 	38.128278 
-60.029284 	38.128323 
-60.029439 	38.128348 
-60.029593 	38.128373 
-60.029751 	38.128377 
-60.029917 	38.128343 
-60.030104 	38.128295 
-60.030316 	38.128244 
-60.030501 	38.128208 
-60.030687 	38.128194 
-60.030842 	38.128211 
