4/21/2015 1:24 PM
nsamples PerSetPoint: 50
RAF probe 1955, 40c to -60C, 10deg steps, 50 samples
Reference(C), Rosemount 1955(Ohm)
39.860947 	58.057568
39.860963 	58.057579
39.860961 	58.057563
39.860940 	58.057521
39.860913 	58.057533
39.860872 	58.057510
39.860829 	58.057496
39.860779 	58.057481
39.860737 	58.057490
39.860691 	58.057479
39.860652 	58.057474
39.860622 	58.057483
39.860578 	58.057493
39.860545 	58.057480
39.860509 	58.057472
39.860450 	58.057460
39.860378 	58.057423
39.860283 	58.057368
39.860187 	58.057337
39.860069 	58.057282
39.859937 	58.057202
39.859794 	58.057145
39.859645 	58.057099
39.859480 	58.057053
39.859311 	58.056997
39.859136 	58.056965
39.858955 	58.056907
39.858791 	58.056866
39.858634 	58.056840
39.858506 	58.056835
39.858398 	58.056836
39.858305 	58.056849
39.858233 	58.056844
39.858189 	58.056856
39.858164 	58.056850
39.858152 	58.056856
39.858143 	58.056869
39.858133 	58.056859
39.858121 	58.056821
39.858110 	58.056825
39.858082 	58.056795
39.858057 	58.056794
39.858048 	58.056771
39.858042 	58.056785
39.858041 	58.056804
39.858066 	58.056799
39.858091 	58.056786
39.858134 	58.056814
39.858196 	58.056843
39.858264 	58.056881
29.852003 	56.079242
29.852395 	56.079294
29.852790 	56.079365
29.853177 	56.079439
29.853560 	56.079524
29.853949 	56.079627
29.854333 	56.079698
29.854720 	56.079788
29.855079 	56.079842
29.855430 	56.079915
29.855784 	56.079970
29.856127 	56.080025
29.856454 	56.080069
29.856782 	56.080139
29.857085 	56.080185
29.857364 	56.080233
29.857645 	56.080294
29.857917 	56.080356
29.858167 	56.080391
29.858391 	56.080411
29.858584 	56.080416
29.858745 	56.080432
29.858889 	56.080454
29.859013 	56.080480
29.859108 	56.080472
29.859176 	56.080484
29.859228 	56.080528
29.859257 	56.080540
29.859277 	56.080547
29.859271 	56.080528
29.859257 	56.080490
29.859237 	56.080505
29.859205 	56.080497
29.859182 	56.080467
29.859154 	56.080453
29.859122 	56.080440
29.859080 	56.080427
29.859052 	56.080421
29.859044 	56.080432
29.859042 	56.080445
29.859039 	56.080452
29.859047 	56.080459
29.859071 	56.080484
29.859080 	56.080466
29.859097 	56.080443
29.859127 	56.080445
29.859155 	56.080449
29.859179 	56.080452
29.859219 	56.080470
29.859277 	56.080521
19.865440 	54.098823
19.865616 	54.098873
19.865761 	54.098882
19.865895 	54.098894
19.866013 	54.098895
19.866109 	54.098885
19.866198 	54.098906
19.866269 	54.098906
19.866333 	54.098896
19.866398 	54.098919
19.866462 	54.098924
19.866529 	54.098937
19.866616 	54.098971
19.866714 	54.098975
19.866828 	54.099025
19.866955 	54.099021
19.867092 	54.099039
19.867221 	54.099075
19.867336 	54.099088
19.867453 	54.099114
19.867562 	54.099142
19.867658 	54.099164
19.867742 	54.099194
19.867811 	54.099216
19.867871 	54.099265
19.867904 	54.099248
19.867938 	54.099272
19.867955 	54.099266
19.867991 	54.099297
19.868024 	54.099313
19.868053 	54.099321
19.868078 	54.099329
19.868122 	54.099353
19.868159 	54.099372
19.868197 	54.099393
19.868235 	54.099413
19.868262 	54.099397
19.868294 	54.099391
19.868327 	54.099406
19.868363 	54.099424
19.868408 	54.099457
19.868454 	54.099475
19.868496 	54.099484
19.868542 	54.099499
19.868574 	54.099484
19.868610 	54.099497
19.868651 	54.099530
19.868690 	54.099522
19.868729 	54.099528
19.868776 	54.099544
9.882879 	52.113368
9.882894 	52.113367
9.882908 	52.113348
9.882918 	52.113342
9.882946 	52.113366
9.882967 	52.113393
9.882985 	52.113395
9.883009 	52.113428
9.883044 	52.113459
9.883081 	52.113456
9.883116 	52.113490
9.883152 	52.113497
9.883189 	52.113528
9.883213 	52.113506
9.883229 	52.113497
9.883233 	52.113480
9.883265 	52.113499
9.883299 	52.113510
9.883340 	52.113547
9.883390 	52.113570
9.883453 	52.113563
9.883522 	52.113554
9.883595 	52.113554
9.883684 	52.113566
9.883786 	52.113585
9.883890 	52.113606
9.883994 	52.113615
9.884095 	52.113635
9.884178 	52.113618
9.884258 	52.113626
9.884330 	52.113620
9.884387 	52.113617
9.884438 	52.113633
9.884485 	52.113637
9.884525 	52.113621
9.884559 	52.113603
9.884602 	52.113613
9.884651 	52.113627
9.884690 	52.113624
9.884721 	52.113637
9.884751 	52.113619
9.884779 	52.113634
9.884804 	52.113626
9.884849 	52.113673
9.884912 	52.113699
9.884973 	52.113704
9.885019 	52.113702
9.885051 	52.113695
9.885081 	52.113683
9.885114 	52.113707
-0.110978 	50.119674
-0.110916 	50.119680
-0.110864 	50.119693
-0.110804 	50.119722
-0.110752 	50.119729
-0.110701 	50.119746
-0.110653 	50.119764
-0.110596 	50.119778
-0.110513 	50.119818
-0.110432 	50.119855
-0.110346 	50.119885
-0.110270 	50.119880
-0.110193 	50.119899
-0.110119 	50.119890
-0.110026 	50.119914
-0.109937 	50.119918
-0.109847 	50.119930
-0.109763 	50.119932
-0.109688 	50.119924
-0.109617 	50.119945
-0.109547 	50.119941
-0.109482 	50.119955
-0.109437 	50.119948
-0.109400 	50.119958
-0.109366 	50.119973
-0.109332 	50.119974
-0.109292 	50.119996
-0.109245 	50.119975
-0.109178 	50.120016
-0.109097 	50.120057
-0.109001 	50.120105
-0.108902 	50.120134
-0.108809 	50.120143
-0.108712 	50.120148
-0.108608 	50.120207
-0.108507 	50.120234
-0.108400 	50.120273
-0.108292 	50.120313
-0.108209 	50.120323
-0.108129 	50.120329
-0.108053 	50.120345
-0.107968 	50.120375
-0.107899 	50.120376
-0.107830 	50.120391
-0.107769 	50.120405
-0.107710 	50.120423
-0.107664 	50.120444
-0.107611 	50.120458
-0.107558 	50.120468
-0.107492 	50.120478
-10.095444 	48.121590
-10.095337 	48.121612
-10.095229 	48.121644
-10.095111 	48.121680
-10.095003 	48.121697
-10.094905 	48.121719
-10.094818 	48.121732
-10.094747 	48.121757
-10.094663 	48.121790
-10.094581 	48.121820
-10.094502 	48.121859
-10.094426 	48.121868
-10.094355 	48.121896
-10.094282 	48.121908
-10.094216 	48.121929
-10.094153 	48.121912
-10.094085 	48.121918
-10.094006 	48.121938
-10.093931 	48.121936
-10.093849 	48.121968
-10.093773 	48.121983
-10.093701 	48.121999
-10.093624 	48.122019
-10.093541 	48.122030
-10.093461 	48.122050
-10.093375 	48.122071
-10.093313 	48.122082
-10.093246 	48.122079
-10.093182 	48.122070
-10.093127 	48.122077
-10.093073 	48.122079
-10.093017 	48.122084
-10.092968 	48.122095
-10.092913 	48.122092
-10.092861 	48.122133
-10.092795 	48.122158
-10.092730 	48.122185
-10.092665 	48.122210
-10.092608 	48.122219
-10.092557 	48.122230
-10.092511 	48.122249
-10.092475 	48.122258
-10.092443 	48.122241
-10.092424 	48.122243
-10.092405 	48.122226
-10.092381 	48.122234
-10.092360 	48.122246
-10.092344 	48.122276
-10.092319 	48.122286
-10.092290 	48.122284
-20.088729 	46.115608
-20.088566 	46.115628
-20.088398 	46.115673
-20.088240 	46.115704
-20.088088 	46.115729
-20.087943 	46.115742
-20.087813 	46.115771
-20.087687 	46.115812
-20.087568 	46.115845
-20.087458 	46.115838
-20.087362 	46.115856
-20.087269 	46.115861
-20.087185 	46.115868
-20.087088 	46.115895
-20.086994 	46.115914
-20.086898 	46.115927
-20.086800 	46.115932
-20.086711 	46.115938
-20.086627 	46.115959
-20.086547 	46.115980
-20.086467 	46.115989
-20.086388 	46.116016
-20.086313 	46.116031
-20.086237 	46.116045
-20.086165 	46.116072
-20.086100 	46.116084
-20.086032 	46.116099
-20.085962 	46.116118
-20.085902 	46.116141
-20.085830 	46.116175
-20.085758 	46.116218
-20.085682 	46.116259
-20.085597 	46.116288
-20.085515 	46.116319
-20.085424 	46.116363
-20.085330 	46.116384
-20.085231 	46.116423
-20.085137 	46.116446
-20.085033 	46.116462
-20.084927 	46.116501
-20.084825 	46.116532
-20.084728 	46.116550
-20.084639 	46.116551
-20.084562 	46.116549
-20.084484 	46.116550
-20.084412 	46.116567
-20.084341 	46.116595
-20.084264 	46.116622
-20.084189 	46.116633
-20.084117 	46.116625
-30.068198 	44.106312
-30.068099 	44.106326
-30.067993 	44.106325
-30.067885 	44.106328
-30.067778 	44.106333
-30.067681 	44.106326
-30.067588 	44.106335
-30.067496 	44.106339
-30.067414 	44.106344
-30.067334 	44.106347
-30.067264 	44.106370
-30.067202 	44.106381
-30.067138 	44.106379
-30.067092 	44.106388
-30.067036 	44.106383
-30.066991 	44.106377
-30.066935 	44.106371
-30.066867 	44.106383
-30.066796 	44.106374
-30.066717 	44.106356
-30.066629 	44.106370
-30.066542 	44.106383
-30.066464 	44.106387
-30.066384 	44.106406
-30.066302 	44.106436
-30.066226 	44.106460
-30.066154 	44.106471
-30.066085 	44.106469
-30.066032 	44.106461
-30.065980 	44.106458
-30.065927 	44.106466
-30.065866 	44.106487
-30.065804 	44.106515
-30.065746 	44.106539
-30.065695 	44.106567
-30.065631 	44.106593
-30.065573 	44.106607
-30.065515 	44.106604
-30.065462 	44.106608
-30.065405 	44.106619
-30.065334 	44.106632
-30.065251 	44.106651
-30.065176 	44.106669
-30.065086 	44.106686
-30.065001 	44.106706
-30.064918 	44.106740
-30.064845 	44.106764
-30.064796 	44.106764
-30.064756 	44.106769
-30.064719 	44.106795
-40.056773 	42.088552
-40.056639 	42.088582
-40.056494 	42.088621
-40.056363 	42.088658
-40.056229 	42.088687
-40.056105 	42.088716
-40.055983 	42.088749
-40.055862 	42.088772
-40.055748 	42.088783
-40.055628 	42.088811
-40.055503 	42.088841
-40.055371 	42.088871
-40.055247 	42.088920
-40.055151 	42.088947
-40.055063 	42.088961
-40.054980 	42.088975
-40.054906 	42.088991
-40.054821 	42.089012
-40.054749 	42.089028
-40.054682 	42.089032
-40.054619 	42.089035
-40.054548 	42.089051
-40.054468 	42.089083
-40.054381 	42.089112
-40.054286 	42.089140
-40.054176 	42.089165
-40.054068 	42.089189
-40.053958 	42.089209
-40.053851 	42.089222
-40.053749 	42.089243
-40.053648 	42.089264
-40.053551 	42.089283
-40.053460 	42.089299
-40.053361 	42.089316
-40.053271 	42.089332
-40.053166 	42.089353
-40.053059 	42.089364
-40.052952 	42.089372
-40.052843 	42.089377
-40.052731 	42.089382
-40.052625 	42.089391
-40.052525 	42.089407
-40.052426 	42.089423
-40.052319 	42.089432
-40.052207 	42.089451
-40.052095 	42.089466
-40.051971 	42.089487
-40.051855 	42.089504
-40.051719 	42.089519
-40.051582 	42.089550
-50.046002 	40.064586
-50.045995 	40.064606
-50.045985 	40.064618
-50.045965 	40.064632
-50.045949 	40.064655
-50.045930 	40.064667
-50.045900 	40.064683
-50.045862 	40.064703
-50.045826 	40.064714
-50.045794 	40.064729
-50.045763 	40.064737
-50.045722 	40.064750
-50.045680 	40.064761
-50.045635 	40.064766
-50.045592 	40.064784
-50.045551 	40.064800
-50.045504 	40.064816
-50.045452 	40.064829
-50.045398 	40.064839
-50.045345 	40.064867
-50.045289 	40.064887
-50.045223 	40.064906
-50.045155 	40.064926
-50.045099 	40.064946
-50.045040 	40.064961
-50.044978 	40.064985
-50.044903 	40.065010
-50.044828 	40.065028
-50.044757 	40.065042
-50.044696 	40.065047
-50.044629 	40.065051
-50.044565 	40.065053
-50.044501 	40.065068
-50.044444 	40.065082
-50.044377 	40.065090
-50.044309 	40.065104
-50.044245 	40.065110
-50.044176 	40.065082
-50.044108 	40.065069
-50.044026 	40.065052
-50.043950 	40.065049
-50.043875 	40.065052
-50.043802 	40.065062
-50.043720 	40.065077
-50.043635 	40.065094
-50.043548 	40.065109
-50.043475 	40.065118
-50.043396 	40.065130
-50.043314 	40.065142
-50.043232 	40.065162
-60.031643 	38.037105
-60.031726 	38.037128
-60.031815 	38.037147
-60.031896 	38.037158
-60.031968 	38.037166
-60.032035 	38.037177
-60.032108 	38.037190
-60.032181 	38.037201
-60.032274 	38.037211
-60.032357 	38.037219
-60.032425 	38.037225
-60.032488 	38.037225
-60.032537 	38.037219
-60.032571 	38.037212
-60.032598 	38.037207
-60.032629 	38.037204
-60.032648 	38.037202
-60.032681 	38.037201
-60.032715 	38.037203
-60.032763 	38.037207
-60.032820 	38.037210
-60.032886 	38.037206
-60.032944 	38.037197
-60.032990 	38.037186
-60.033008 	38.037176
-60.033003 	38.037166
-60.032971 	38.037158
-60.032926 	38.037154
-60.032861 	38.037148
-60.032772 	38.037145
-60.032676 	38.037148
-60.032571 	38.037154
-60.032443 	38.037161
-60.032303 	38.037176
-60.032163 	38.037194
-60.032018 	38.037209
-60.031866 	38.037226
-60.031713 	38.037243
-60.031540 	38.037260
-60.031359 	38.037274
-60.031187 	38.037289
-60.031025 	38.037310
-60.030883 	38.037334
-60.030755 	38.037356
-60.030641 	38.037377
-60.030521 	38.037397
-60.030410 	38.037416
-60.030276 	38.037434
-60.030123 	38.037446
-60.029958 	38.037459
