10/2/2014 9:57 AM
nsamplesPerSetPoint: 50
RAF probes 3400, 3401, 40c to -60C, 10deg steps, 50 samples
Reference(C), FastResp 3400(Ohm),  FastResp 3401(Ohm)
39.871545 57.903934 57.948171 
39.871482 57.903906 57.948162 
39.871429 57.903889 57.948167 
39.871393 57.903858 57.948166 
39.871353 57.903812 57.948177 
39.871323 57.903794 57.948182 
39.871299 57.903762 57.948189 
39.871282 57.903736 57.948196 
39.871260 57.903701 57.948190 
39.871221 57.903674 57.948177 
39.871180 57.903613 57.948161 
39.871145 57.903567 57.948168 
39.871118 57.903524 57.948166 
39.871100 57.903491 57.948182 
39.871105 57.903467 57.948183 
39.871129 57.903446 57.948201 
39.871162 57.903439 57.948195 
39.871190 57.903463 57.948195 
39.871229 57.903439 57.948207 
39.871257 57.903411 57.948221 
39.871289 57.903441 57.948234 
39.871309 57.903436 57.948237 
39.871321 57.903426 57.948245 
39.871318 57.903408 57.948255 
39.871340 57.903429 57.948262 
39.871389 57.903441 57.948277 
39.871460 57.903466 57.948294 
39.871522 57.903495 57.948301 
39.871591 57.903508 57.948304 
39.871644 57.903506 57.948320 
39.871693 57.903512 57.948314 
39.871724 57.903512 57.948317 
39.871754 57.903539 57.948320 
39.871757 57.903529 57.948346 
39.871773 57.903535 57.948356 
39.871784 57.903539 57.948366 
39.871796 57.903540 57.948366 
39.871808 57.903569 57.948378 
39.871834 57.903592 57.948383 
39.871881 57.903612 57.948398 
39.871934 57.903661 57.948420 
39.871996 57.903668 57.948434 
39.872042 57.903674 57.948437 
39.872080 57.903690 57.948440 
39.872085 57.903678 57.948444 
39.872068 57.903691 57.948437 
39.872047 57.903664 57.948443 
39.872012 57.903610 57.948438 
39.871976 57.903598 57.948429 
39.871933 57.903607 57.948425 
29.870312 55.933058 55.976044 
29.870312 55.933076 55.976042 
29.870322 55.933115 55.976059 
29.870352 55.933166 55.976072 
29.870423 55.933187 55.976099 
29.870522 55.933201 55.976151 
29.870655 55.933238 55.976190 
29.870795 55.933288 55.976222 
29.870935 55.933350 55.976235 
29.871066 55.933394 55.976256 
29.871185 55.933417 55.976265 
29.871275 55.933434 55.976259 
29.871346 55.933468 55.976260 
29.871380 55.933466 55.976254 
29.871417 55.933490 55.976244 
29.871448 55.933506 55.976237 
29.871466 55.933542 55.976231 
29.871517 55.933577 55.976255 
29.871581 55.933579 55.976286 
29.871630 55.933564 55.976303 
29.871670 55.933539 55.976320 
29.871705 55.933531 55.976330 
29.871726 55.933527 55.976330 
29.871744 55.933514 55.976342 
29.871781 55.933493 55.976356 
29.871830 55.933524 55.976369 
29.871918 55.933552 55.976408 
29.872029 55.933599 55.976439 
29.872145 55.933601 55.976463 
29.872270 55.933614 55.976477 
29.872384 55.933601 55.976495 
29.872475 55.933594 55.976504 
29.872527 55.933600 55.976502 
29.872549 55.933603 55.976498 
29.872546 55.933596 55.976483 
29.872535 55.933601 55.976474 
29.872504 55.933584 55.976463 
29.872481 55.933550 55.976456 
29.872463 55.933537 55.976453 
29.872468 55.933543 55.976448 
29.872470 55.933573 55.976451 
29.872503 55.933554 55.976477 
29.872543 55.933567 55.976490 
29.872570 55.933578 55.976484 
29.872579 55.933573 55.976478 
29.872568 55.933570 55.976479 
29.872544 55.933550 55.976481 
29.872492 55.933520 55.976474 
29.872425 55.933533 55.976444 
29.872363 55.933568 55.976428 
19.882232 53.958776 54.000610 
19.882306 53.958751 54.000656 
19.882393 53.958737 54.000708 
19.882502 53.958784 54.000730 
19.882621 53.958813 54.000758 
19.882740 53.958837 54.000765 
19.882858 53.958893 54.000779 
19.882964 53.958938 54.000785 
19.883067 53.958964 54.000785 
19.883149 53.958989 54.000792 
19.883226 53.958975 54.000813 
19.883302 53.958967 54.000829 
19.883363 53.958977 54.000826 
19.883422 53.958976 54.000825 
19.883474 53.958947 54.000815 
19.883526 53.958949 54.000813 
19.883554 53.958956 54.000817 
19.883587 53.958947 54.000816 
19.883614 53.958962 54.000810 
19.883624 53.958980 54.000804 
19.883639 53.958975 54.000811 
19.883655 53.959015 54.000817 
19.883679 53.959035 54.000824 
19.883708 53.959038 54.000829 
19.883732 53.959039 54.000835 
19.883767 53.959073 54.000844 
19.883801 53.959072 54.000860 
19.883838 53.959089 54.000861 
19.883866 53.959085 54.000863 
19.883885 53.959108 54.000857 
19.883891 53.959127 54.000831 
19.883878 53.959184 54.000798 
19.883864 53.959218 54.000759 
19.883841 53.959217 54.000756 
19.883817 53.959203 54.000738 
19.883778 53.959184 54.000720 
19.883719 53.959162 54.000705 
19.883633 53.959141 54.000672 
19.883523 53.959126 54.000644 
19.883380 53.959085 54.000605 
19.883201 53.959058 54.000555 
19.882985 53.959036 54.000482 
19.882737 53.958980 54.000413 
19.882431 53.958870 54.000351 
19.882086 53.958778 54.000291 
19.881715 53.958667 54.000221 
19.881325 53.958592 54.000136 
19.880895 53.958513 54.000050 
19.880449 53.958393 53.999978 
19.879987 53.958262 53.999887 
9.901685 51.979968 52.020473 
9.901935 51.980015 52.020502 
9.902159 51.980058 52.020533 
9.902361 51.980080 52.020574 
9.902541 51.980077 52.020604 
9.902693 51.980080 52.020620 
9.902830 51.980064 52.020632 
9.902932 51.980042 52.020646 
9.903016 51.980023 52.020650 
9.903057 51.980025 52.020644 
9.903066 51.980052 52.020614 
9.903035 51.980069 52.020569 
9.902966 51.980008 52.020532 
9.902871 51.979981 52.020508 
9.902748 51.979976 52.020477 
9.902614 51.979947 52.020459 
9.902478 51.979914 52.020412 
9.902323 51.979854 52.020379 
9.902141 51.979756 52.020344 
9.901935 51.979681 52.020299 
9.901718 51.979628 52.020248 
9.901476 51.979552 52.020178 
9.901219 51.979494 52.020118 
9.900957 51.979452 52.020065 
9.900692 51.979444 52.020011 
9.900435 51.979429 52.019955 
9.900172 51.979417 52.019890 
9.899907 51.979341 52.019853 
9.899649 51.979317 52.019813 
9.899411 51.979292 52.019770 
9.899185 51.979243 52.019741 
9.898966 51.979205 52.019705 
9.898751 51.979148 52.019664 
9.898536 51.979129 52.019622 
9.898325 51.979101 52.019572 
9.898126 51.979082 52.019519 
9.897938 51.979054 52.019490 
9.897760 51.979027 52.019465 
9.897591 51.979001 52.019439 
9.897460 51.978947 52.019428 
9.897350 51.978909 52.019414 
9.897280 51.978878 52.019408 
9.897253 51.978918 52.019411 
9.897263 51.978974 52.019411 
9.897309 51.979028 52.019426 
9.897398 51.979077 52.019438 
9.897518 51.979118 52.019489 
9.897689 51.979146 52.019555 
9.897899 51.979265 52.019612 
9.898145 51.979375 52.019670 
-0.086757 49.992974 50.032502 
-0.086732 49.992996 50.032495 
-0.086707 49.993005 50.032513 
-0.086681 49.993007 50.032525 
-0.086644 49.993004 50.032542 
-0.086615 49.993032 50.032539 
-0.086595 49.993027 50.032530 
-0.086594 49.993023 50.032511 
-0.086614 49.993006 50.032480 
-0.086661 49.992996 50.032463 
-0.086746 49.992909 50.032424 
-0.086866 49.992849 50.032379 
-0.087023 49.992800 50.032316 
-0.087186 49.992760 50.032259 
-0.087372 49.992702 50.032219 
-0.087571 49.992648 50.032180 
-0.087768 49.992609 50.032136 
-0.087941 49.992614 50.032088 
-0.088098 49.992614 50.032043 
-0.088250 49.992611 50.032000 
-0.088414 49.992590 50.031975 
-0.088572 49.992573 50.031958 
-0.088717 49.992550 50.031940 
-0.088849 49.992552 50.031911 
-0.088966 49.992549 50.031871 
-0.089061 49.992527 50.031857 
-0.089122 49.992523 50.031876 
-0.089162 49.992518 50.031888 
-0.089178 49.992489 50.031892 
-0.089198 49.992505 50.031894 
-0.089209 49.992523 50.031889 
-0.089225 49.992546 50.031879 
-0.089242 49.992537 50.031861 
-0.089257 49.992559 50.031855 
-0.089283 49.992545 50.031840 
-0.089299 49.992529 50.031853 
-0.089326 49.992532 50.031854 
-0.089340 49.992537 50.031861 
-0.089343 49.992551 50.031880 
-0.089339 49.992560 50.031886 
-0.089316 49.992595 50.031905 
-0.089280 49.992634 50.031906 
-0.089216 49.992616 50.031944 
-0.089162 49.992640 50.031962 
-0.089116 49.992671 50.031965 
-0.089061 49.992685 50.031989 
-0.089016 49.992701 50.032000 
-0.089006 49.992704 50.031987 
-0.089010 49.992704 50.031984 
-0.089014 49.992698 50.031990 
-10.077497 47.999904 48.037803 
-10.077388 47.999916 48.037834 
-10.077280 47.999888 48.037867 
-10.077172 47.999890 48.037891 
-10.077065 47.999922 48.037902 
-10.076959 47.999955 48.037925 
-10.076870 47.999966 48.037943 
-10.076787 47.999957 48.037954 
-10.076724 47.999994 48.037954 
-10.076661 47.999989 48.037960 
-10.076595 47.999977 48.037973 
-10.076541 47.999986 48.037980 
-10.076471 48.000008 48.038001 
-10.076397 48.000008 48.038022 
-10.076313 48.000030 48.038050 
-10.076237 48.000072 48.038063 
-10.076176 48.000071 48.038072 
-10.076136 48.000100 48.038081 
-10.076113 48.000116 48.038090 
-10.076084 48.000145 48.038112 
-10.076067 48.000169 48.038116 
-10.076038 48.000186 48.038121 
-10.075994 48.000203 48.038142 
-10.075946 48.000232 48.038152 
-10.075885 48.000280 48.038172 
-10.075826 48.000317 48.038190 
-10.075764 48.000346 48.038200 
-10.075716 48.000331 48.038216 
-10.075689 48.000332 48.038223 
-10.075680 48.000285 48.038232 
-10.075691 48.000250 48.038239 
-10.075709 48.000218 48.038226 
-10.075734 48.000218 48.038204 
-10.075756 48.000252 48.038203 
-10.075757 48.000273 48.038213 
-10.075749 48.000263 48.038222 
-10.075714 48.000264 48.038223 
-10.075675 48.000278 48.038236 
-10.075604 48.000297 48.038256 
-10.075541 48.000315 48.038285 
-10.075485 48.000318 48.038299 
-10.075443 48.000320 48.038305 
-10.075437 48.000308 48.038293 
-10.075440 48.000305 48.038279 
-10.075465 48.000270 48.038256 
-10.075487 48.000282 48.038250 
-10.075494 48.000279 48.038252 
-10.075486 48.000269 48.038250 
-10.075449 48.000248 48.038271 
-10.075394 48.000228 48.038282 
-20.065801 46.000481 46.037691 
-20.065747 46.000490 46.037690 
-20.065696 46.000514 46.037689 
-20.065646 46.000536 46.037702 
-20.065600 46.000581 46.037704 
-20.065539 46.000619 46.037716 
-20.065470 46.000655 46.037730 
-20.065402 46.000678 46.037725 
-20.065351 46.000670 46.037748 
-20.065292 46.000681 46.037762 
-20.065241 46.000708 46.037776 
-20.065181 46.000729 46.037799 
-20.065140 46.000777 46.037803 
-20.065101 46.000799 46.037809 
-20.065057 46.000794 46.037811 
-20.065021 46.000812 46.037823 
-20.064993 46.000803 46.037824 
-20.064963 46.000816 46.037831 
-20.064936 46.000837 46.037830 
-20.064913 46.000836 46.037845 
-20.064886 46.000861 46.037845 
-20.064877 46.000867 46.037842 
-20.064864 46.000917 46.037843 
-20.064849 46.000956 46.037836 
-20.064827 46.000941 46.037838 
-20.064798 46.000938 46.037838 
-20.064779 46.000945 46.037851 
-20.064746 46.001010 46.037859 
-20.064701 46.001055 46.037875 
-20.064646 46.001076 46.037879 
-20.064594 46.001117 46.037888 
-20.064546 46.001128 46.037905 
-20.064499 46.001144 46.037920 
-20.064457 46.001192 46.037921 
-20.064417 46.001220 46.037925 
-20.064385 46.001257 46.037926 
-20.064370 46.001280 46.037923 
-20.064385 46.001276 46.037934 
-20.064386 46.001284 46.037935 
-20.064400 46.001276 46.037931 
-20.064405 46.001262 46.037920 
-20.064416 46.001264 46.037913 
-20.064424 46.001263 46.037898 
-20.064416 46.001276 46.037894 
-20.064408 46.001293 46.037890 
-20.064384 46.001310 46.037895 
-20.064359 46.001318 46.037893 
-20.064321 46.001295 46.037887 
-20.064269 46.001291 46.037893 
-20.064217 46.001295 46.037908 
-30.047841 43.996783 44.032591 
-30.047755 43.996810 44.032614 
-30.047662 43.996829 44.032632 
-30.047569 43.996837 44.032652 
-30.047473 43.996838 44.032673 
-30.047387 43.996851 44.032694 
-30.047293 43.996867 44.032706 
-30.047202 43.996904 44.032716 
-30.047127 43.996963 44.032719 
-30.047061 43.997028 44.032730 
-30.046992 43.997059 44.032744 
-30.046926 43.997062 44.032759 
-30.046884 43.997083 44.032772 
-30.046825 43.997083 44.032789 
-30.046778 43.997068 44.032794 
-30.046748 43.997077 44.032796 
-30.046731 43.997095 44.032801 
-30.046701 43.997081 44.032814 
-30.046672 43.997098 44.032826 
-30.046651 43.997124 44.032846 
-30.046635 43.997100 44.032854 
-30.046614 43.997081 44.032868 
-30.046598 43.997104 44.032875 
-30.046557 43.997131 44.032886 
-30.046517 43.997120 44.032883 
-30.046469 43.997135 44.032889 
-30.046399 43.997140 44.032891 
-30.046339 43.997126 44.032905 
-30.046283 43.997145 44.032915 
-30.046238 43.997166 44.032913 
-30.046209 43.997143 44.032914 
-30.046196 43.997143 44.032912 
-30.046200 43.997160 44.032907 
-30.046204 43.997164 44.032909 
-30.046225 43.997186 44.032906 
-30.046243 43.997228 44.032911 
-30.046258 43.997226 44.032913 
-30.046270 43.997218 44.032905 
-30.046282 43.997209 44.032890 
-30.046279 43.997202 44.032888 
-30.046279 43.997197 44.032891 
-30.046272 43.997174 44.032895 
-30.046246 43.997163 44.032903 
-30.046235 43.997168 44.032909 
-30.046221 43.997211 44.032928 
-30.046200 43.997247 44.032944 
-30.046178 43.997262 44.032956 
-30.046163 43.997310 44.032962 
-30.046137 43.997307 44.032972 
-30.046094 43.997323 44.032988 
-40.035049 41.986153 42.020395 
-40.034976 41.986173 42.020409 
-40.034900 41.986166 42.020428 
-40.034826 41.986192 42.020437 
-40.034775 41.986186 42.020456 
-40.034714 41.986199 42.020472 
-40.034640 41.986168 42.020479 
-40.034565 41.986143 42.020497 
-40.034500 41.986140 42.020515 
-40.034443 41.986149 42.020531 
-40.034403 41.986184 42.020550 
-40.034388 41.986221 42.020558 
-40.034369 41.986228 42.020578 
-40.034338 41.986229 42.020578 
-40.034309 41.986203 42.020589 
-40.034307 41.986220 42.020591 
-40.034318 41.986217 42.020585 
-40.034330 41.986164 42.020580 
-40.034340 41.986156 42.020564 
-40.034351 41.986129 42.020551 
-40.034366 41.986114 42.020546 
-40.034364 41.986082 42.020539 
-40.034361 41.986043 42.020530 
-40.034351 41.986018 42.020530 
-40.034346 41.986023 42.020524 
-40.034342 41.986081 42.020515 
-40.034320 41.986078 42.020520 
-40.034294 41.986052 42.020524 
-40.034267 41.986042 42.020529 
-40.034238 41.986070 42.020531 
-40.034212 41.986087 42.020537 
-40.034177 41.986077 42.020543 
-40.034144 41.986094 42.020550 
-40.034110 41.986103 42.020558 
-40.034070 41.986132 42.020561 
-40.034018 41.986160 42.020571 
-40.033960 41.986197 42.020592 
-40.033900 41.986223 42.020603 
-40.033818 41.986222 42.020612 
-40.033733 41.986232 42.020628 
-40.033628 41.986322 42.020647 
-40.033509 41.986345 42.020677 
-40.033400 41.986374 42.020696 
-40.033304 41.986400 42.020732 
-40.033207 41.986418 42.020751 
-40.033070 41.986398 42.020772 
-40.032933 41.986392 42.020806 
-40.032785 41.986410 42.020831 
-40.032648 41.986413 42.020862 
-40.032514 41.986434 42.020883 
-50.029855 39.968430 40.000924 
-50.029804 39.968463 40.000936 
-50.029746 39.968466 40.000948 
-50.029697 39.968478 40.000959 
-50.029636 39.968490 40.000971 
-50.029569 39.968473 40.000980 
-50.029505 39.968467 40.000988 
-50.029439 39.968477 40.000996 
-50.029366 39.968466 40.001007 
-50.029291 39.968479 40.001020 
-50.029229 39.968491 40.001032 
-50.029170 39.968498 40.001048 
-50.029108 39.968507 40.001059 
-50.029065 39.968513 40.001073 
-50.029014 39.968524 40.001090 
-50.028968 39.968552 40.001103 
-50.028910 39.968574 40.001118 
-50.028830 39.968582 40.001128 
-50.028757 39.968592 40.001139 
-50.028660 39.968613 40.001150 
-50.028560 39.968623 40.001160 
-50.028476 39.968635 40.001176 
-50.028397 39.968682 40.001187 
-50.028318 39.968735 40.001199 
-50.028256 39.968767 40.001216 
-50.028195 39.968794 40.001223 
-50.028147 39.968806 40.001230 
-50.028106 39.968816 40.001235 
-50.028063 39.968809 40.001244 
-50.028029 39.968820 40.001251 
-50.027995 39.968820 40.001253 
-50.027978 39.968820 40.001255 
-50.027974 39.968824 40.001260 
-50.027983 39.968813 40.001273 
-50.028004 39.968803 40.001282 
-50.028021 39.968806 40.001287 
-50.028029 39.968796 40.001299 
-50.028035 39.968784 40.001311 
-50.028035 39.968782 40.001322 
-50.028043 39.968769 40.001330 
-50.028024 39.968763 40.001333 
-50.028012 39.968780 40.001326 
-50.028008 39.968805 40.001324 
-50.027983 39.968842 40.001323 
-50.027945 39.968869 40.001322 
-50.027896 39.968882 40.001328 
-50.027836 39.968884 40.001333 
-50.027784 39.968894 40.001345 
-50.027733 39.968905 40.001357 
-50.027709 39.968880 40.001367 
-60.015893 37.944749 37.978124 
-60.015823 37.944764 37.978148 
-60.015771 37.944779 37.978174 
-60.015739 37.944796 37.978197 
-60.015682 37.944808 37.978214 
-60.015628 37.944825 37.978231 
-60.015578 37.944834 37.978246 
-60.015558 37.944841 37.978270 
-60.015534 37.944851 37.978297 
-60.015511 37.944860 37.978326 
-60.015468 37.944873 37.978360 
-60.015409 37.944876 37.978397 
-60.015329 37.944876 37.978429 
-60.015227 37.944871 37.978449 
-60.015076 37.944887 37.978461 
-60.014907 37.944890 37.978467 
-60.014741 37.944903 37.978482 
-60.014580 37.944913 37.978504 
-60.014443 37.944922 37.978527 
-60.014316 37.944930 37.978551 
-60.014197 37.944936 37.978575 
-60.014090 37.944924 37.978598 
-60.014013 37.944919 37.978625 
-60.013925 37.944922 37.978650 
-60.013815 37.944916 37.978677 
-60.013735 37.944936 37.978710 
-60.013667 37.944932 37.978744 
-60.013617 37.944868 37.978772 
-60.013584 37.944837 37.978797 
-60.013569 37.944797 37.978819 
-60.013553 37.944759 37.978843 
-60.013535 37.944743 37.978866 
-60.013460 37.944719 37.978888 
-60.013341 37.944692 37.978910 
-60.013244 37.944671 37.978932 
-60.013168 37.944673 37.978954 
-60.013091 37.944690 37.978977 
-60.013030 37.944693 37.978996 
-60.012972 37.944702 37.979009 
-60.012921 37.944716 37.979022 
-60.012867 37.944730 37.979030 
-60.012814 37.944757 37.979043 
-60.012762 37.944772 37.979066 
-60.012718 37.944784 37.979091 
-60.012699 37.944842 37.979115 
-60.012682 37.944864 37.979141 
-60.012664 37.944881 37.979155 
-60.012629 37.944901 37.979167 
-60.012555 37.944916 37.979163 
-60.012450 37.944932 37.979147 
