2/12/2013 8:35 AM
nDataPerSetPoint: 30
RAF Temperature Probe Calibration
Reference(C), FastResp 3182(Ohm), FastResp 3269(Ohm), FastResp 2984(Ohm)
29.863264 	55.972073 	56.008539 	56.527137 
29.863355 	55.972074 	56.008548 	56.527165 
29.863531 	55.972092 	56.008595 	56.527201 
29.863724 	55.972125 	56.008648 	56.527241 
29.863951 	55.972162 	56.008718 	56.527284 
29.863951 	55.972202 	56.008753 	56.527312 
29.864100 	55.972229 	56.008737 	56.527324 
29.864133 	55.972242 	56.008756 	56.527331 
29.864102 	55.972251 	56.008795 	56.527336 
29.864144 	55.972258 	56.008819 	56.527341 
29.864144 	55.972281 	56.008837 	56.527352 
29.864264 	55.972320 	56.008893 	56.527378 
29.864426 	55.972356 	56.008933 	56.527398 
29.864552 	55.972379 	56.009000 	56.527418 
29.864407 	55.972374 	56.009065 	56.527425 
29.864407 	55.972366 	56.009093 	56.527409 
29.864078 	55.972354 	56.009120 	56.527374 
29.864078 	55.972331 	56.009117 	56.527349 
29.863943 	55.972315 	56.009121 	56.527325 
29.864048 	55.972329 	56.009133 	56.527328 
29.864254 	55.972350 	56.009141 	56.527339 
29.864438 	55.972400 	56.009160 	56.527355 
29.864617 	55.972434 	56.009175 	56.527364 
29.864617 	55.972461 	56.009131 	56.527394 
29.864805 	55.972474 	56.009094 	56.527433 
29.865125 	55.972469 	56.009069 	56.527467 
29.865295 	55.972478 	56.009029 	56.527485 
29.865295 	55.972469 	56.008992 	56.527502 
29.865689 	55.972462 	56.008943 	56.527529 
29.865888 	55.972491 	56.008912 	56.527566 
19.877128 	53.996065 	54.032210 	54.534349 
19.877512 	53.996063 	54.032144 	54.534383 
19.877742 	53.996084 	54.032076 	54.534432 
19.877890 	53.996081 	54.032063 	54.534467 
19.878015 	53.996099 	54.032052 	54.534469 
19.878096 	53.996127 	54.032023 	54.534488 
19.878108 	53.996140 	54.032028 	54.534499 
19.878139 	53.996139 	54.032023 	54.534516 
19.878118 	53.996139 	54.032029 	54.534509 
19.878118 	53.996165 	54.032033 	54.534508 
19.878151 	53.996168 	54.032046 	54.534501 
19.878151 	53.996154 	54.032048 	54.534506 
19.878178 	53.996168 	54.032042 	54.534515 
19.878178 	53.996154 	54.032068 	54.534505 
19.877996 	53.996166 	54.032113 	54.534495 
19.877900 	53.996158 	54.032175 	54.534494 
19.877773 	53.996165 	54.032201 	54.534477 
19.877647 	53.996144 	54.032272 	54.534462 
19.877540 	53.996155 	54.032336 	54.534440 
19.877433 	53.996160 	54.032388 	54.534421 
19.877340 	53.996187 	54.032437 	54.534405 
19.877340 	53.996194 	54.032479 	54.534384 
19.877184 	53.996190 	54.032527 	54.534377 
19.877184 	53.996180 	54.032546 	54.534362 
19.877106 	53.996188 	54.032616 	54.534351 
19.876951 	53.996188 	54.032694 	54.534328 
19.876645 	53.996195 	54.032756 	54.534303 
19.876597 	53.996195 	54.032790 	54.534278 
19.876547 	53.996182 	54.032832 	54.534275 
19.876528 	53.996174 	54.032836 	54.534272 
9.893581 	52.014331 	52.049508 	52.536503 
9.893581 	52.014352 	52.049586 	52.536518 
9.893694 	52.014385 	52.049656 	52.536527 
9.893700 	52.014412 	52.049737 	52.536534 
9.893700 	52.014446 	52.049795 	52.536542 
9.893795 	52.014483 	52.049872 	52.536542 
9.893885 	52.014514 	52.049924 	52.536551 
9.893991 	52.014528 	52.049954 	52.536570 
9.893991 	52.014550 	52.049943 	52.536593 
9.894114 	52.014582 	52.049947 	52.536614 
9.894255 	52.014587 	52.049929 	52.536634 
9.894460 	52.014606 	52.049931 	52.536653 
9.894533 	52.014631 	52.049940 	52.536665 
9.894533 	52.014635 	52.049990 	52.536692 
9.894613 	52.014658 	52.050004 	52.536717 
9.894845 	52.014656 	52.050021 	52.536751 
9.894845 	52.014662 	52.050025 	52.536776 
9.895137 	52.014670 	52.050040 	52.536789 
9.895192 	52.014691 	52.050080 	52.536800 
9.895221 	52.014700 	52.050127 	52.536810 
9.895214 	52.014707 	52.050195 	52.536806 
9.895169 	52.014724 	52.050257 	52.536803 
9.895120 	52.014747 	52.050327 	52.536799 
9.895156 	52.014769 	52.050383 	52.536794 
9.895161 	52.014804 	52.050446 	52.536785 
9.895127 	52.014843 	52.050482 	52.536775 
9.895161 	52.014867 	52.050531 	52.536770 
9.895161 	52.014884 	52.050573 	52.536777 
9.895314 	52.014891 	52.050574 	52.536791 
9.895442 	52.014903 	52.050562 	52.536811 
-0.099127 	50.025341 	50.060713 	50.531186 
-0.099005 	50.025380 	50.060752 	50.531215 
-0.098839 	50.025404 	50.060778 	50.531247 
-0.098678 	50.025439 	50.060812 	50.531277 
-0.098426 	50.025492 	50.060821 	50.531314 
-0.098169 	50.025532 	50.060802 	50.531353 
-0.097915 	50.025560 	50.060781 	50.531382 
-0.097684 	50.025581 	50.060724 	50.531414 
-0.097457 	50.025586 	50.060696 	50.531445 
-0.097302 	50.025599 	50.060679 	50.531478 
-0.097302 	50.025613 	50.060625 	50.531514 
-0.097031 	50.025635 	50.060629 	50.531542 
-0.096964 	50.025656 	50.060615 	50.531574 
-0.096854 	50.025672 	50.060599 	50.531598 
-0.096660 	50.025661 	50.060589 	50.531624 
-0.096500 	50.025681 	50.060605 	50.531651 
-0.096330 	50.025704 	50.060597 	50.531662 
-0.096232 	50.025721 	50.060605 	50.531684 
-0.096149 	50.025740 	50.060633 	50.531707 
-0.096056 	50.025761 	50.060646 	50.531727 
-0.096056 	50.025774 	50.060675 	50.531742 
-0.095963 	50.025809 	50.060686 	50.531769 
-0.095905 	50.025823 	50.060710 	50.531787 
-0.095905 	50.025823 	50.060719 	50.531806 
-0.095895 	50.025832 	50.060728 	50.531821 
-0.095936 	50.025848 	50.060747 	50.531830 
-0.095899 	50.025849 	50.060787 	50.531841 
-0.095794 	50.025856 	50.060822 	50.531871 
-0.095634 	50.025880 	50.060862 	50.531887 
-0.095634 	50.025898 	50.060896 	50.531912 
-10.081487 	48.031194 	48.064704 	48.521811 
-10.081355 	48.031204 	48.064708 	48.521855 
-10.081249 	48.031213 	48.064740 	48.521894 
-10.081249 	48.031250 	48.064787 	48.521934 
-10.081111 	48.031286 	48.064841 	48.521961 
-10.081019 	48.031303 	48.064891 	48.521987 
-10.080954 	48.031327 	48.064926 	48.522008 
-10.080839 	48.031382 	48.064966 	48.522031 
-10.080721 	48.031401 	48.064981 	48.522055 
-10.080616 	48.031419 	48.065020 	48.522078 
-10.080616 	48.031438 	48.065017 	48.522100 
-10.080464 	48.031471 	48.065030 	48.522123 
-10.080353 	48.031470 	48.065076 	48.522141 
-10.080353 	48.031489 	48.065103 	48.522157 
-10.080247 	48.031524 	48.065130 	48.522177 
-10.080146 	48.031555 	48.065134 	48.522197 
-10.080105 	48.031585 	48.065132 	48.522213 
-10.080105 	48.031573 	48.065154 	48.522214 
-10.080110 	48.031576 	48.065174 	48.522220 
-10.080056 	48.031558 	48.065160 	48.522228 
-10.079982 	48.031562 	48.065150 	48.522238 
-10.079916 	48.031565 	48.065176 	48.522248 
-10.079916 	48.031584 	48.065175 	48.522255 
-10.079779 	48.031601 	48.065201 	48.522265 
-10.079739 	48.031612 	48.065215 	48.522271 
-10.079726 	48.031631 	48.065221 	48.522280 
-10.079703 	48.031646 	48.065229 	48.522290 
-10.079730 	48.031637 	48.065277 	48.522295 
-10.079767 	48.031644 	48.065334 	48.522295 
-10.079818 	48.031663 	48.065380 	48.522298 
-20.070452 	46.030117 	46.062636 	46.505380 
-20.070352 	46.030141 	46.062648 	46.505408 
-20.070233 	46.030167 	46.062661 	46.505435 
-20.070233 	46.030183 	46.062680 	46.505465 
-20.070099 	46.030191 	46.062702 	46.505496 
-20.069958 	46.030207 	46.062724 	46.505525 
-20.069803 	46.030239 	46.062747 	46.505553 
-20.069695 	46.030260 	46.062768 	46.505579 
-20.069539 	46.030289 	46.062788 	46.505604 
-20.069539 	46.030284 	46.062792 	46.505627 
-20.069398 	46.030294 	46.062845 	46.505648 
-20.069398 	46.030328 	46.062861 	46.505666 
-20.069326 	46.030352 	46.062897 	46.505684 
-20.069207 	46.030376 	46.062937 	46.505704 
-20.069078 	46.030386 	46.062953 	46.505724 
-20.068976 	46.030401 	46.062947 	46.505744 
-20.068853 	46.030407 	46.062970 	46.505764 
-20.068673 	46.030417 	46.062998 	46.505788 
-20.068629 	46.030417 	46.063050 	46.505811 
-20.068606 	46.030418 	46.063057 	46.505831 
-20.068571 	46.030402 	46.063071 	46.505850 
-20.068571 	46.030402 	46.063114 	46.505866 
-20.068499 	46.030408 	46.063140 	46.505879 
-20.068453 	46.030416 	46.063166 	46.505891 
-20.068419 	46.030416 	46.063189 	46.505902 
-20.068419 	46.030419 	46.063167 	46.505913 
-20.068372 	46.030424 	46.063211 	46.505923 
-20.068372 	46.030415 	46.063211 	46.505935 
-20.068279 	46.030405 	46.063248 	46.505947 
-20.068279 	46.030399 	46.063271 	46.505957 
-30.052986 	44.024236 	44.055799 	44.483569 
-30.052913 	44.024248 	44.055817 	44.483592 
-30.052810 	44.024258 	44.055839 	44.483613 
-30.052729 	44.024265 	44.055849 	44.483640 
-30.052729 	44.024281 	44.055852 	44.483663 
-30.052494 	44.024281 	44.055899 	44.483691 
-30.052373 	44.024281 	44.055926 	44.483716 
-30.052373 	44.024290 	44.055936 	44.483739 
-30.052162 	44.024293 	44.055950 	44.483764 
-30.052162 	44.024290 	44.055973 	44.483788 
-30.052056 	44.024295 	44.055993 	44.483808 
-30.051906 	44.024306 	44.056030 	44.483828 
-30.051845 	44.024314 	44.056067 	44.483846 
-30.051743 	44.024321 	44.056101 	44.483860 
-30.051631 	44.024325 	44.056115 	44.483877 
-30.051552 	44.024324 	44.056139 	44.483894 
-30.051423 	44.024324 	44.056171 	44.483913 
-30.051423 	44.024321 	44.056180 	44.483929 
-30.051332 	44.024292 	44.056209 	44.483948 
-30.051246 	44.024271 	44.056196 	44.483965 
-30.051163 	44.024269 	44.056186 	44.483987 
-30.051059 	44.024262 	44.056208 	44.484011 
-30.050860 	44.024257 	44.056248 	44.484032 
-30.050779 	44.024250 	44.056297 	44.484047 
-30.050693 	44.024263 	44.056325 	44.484065 
-30.050654 	44.024297 	44.056336 	44.484081 
-30.050654 	44.024318 	44.056324 	44.484099 
-30.050649 	44.024330 	44.056312 	44.484113 
-30.050644 	44.024357 	44.056294 	44.484125 
-30.050626 	44.024338 	44.056299 	44.484136 
-40.039989 	42.011139 	42.041525 	42.454341 
-40.039886 	42.011174 	42.041531 	42.454367 
-40.039697 	42.011224 	42.041529 	42.454391 
-40.039697 	42.011276 	42.041529 	42.454413 
-40.039613 	42.011312 	42.041517 	42.454434 
-40.039557 	42.011348 	42.041522 	42.454453 
-40.039557 	42.011369 	42.041525 	42.454470 
-40.039559 	42.011398 	42.041511 	42.454485 
-40.039531 	42.011426 	42.041515 	42.454498 
-40.039531 	42.011452 	42.041527 	42.454511 
-40.039448 	42.011476 	42.041549 	42.454521 
-40.039448 	42.011515 	42.041558 	42.454531 
-40.039331 	42.011548 	42.041590 	42.454543 
-40.039289 	42.011583 	42.041612 	42.454554 
-40.039222 	42.011622 	42.041636 	42.454562 
-40.039222 	42.011660 	42.041648 	42.454571 
-40.039126 	42.011686 	42.041663 	42.454584 
-40.038983 	42.011720 	42.041674 	42.454596 
-40.038920 	42.011771 	42.041676 	42.454608 
-40.038889 	42.011818 	42.041686 	42.454621 
-40.038889 	42.011859 	42.041703 	42.454634 
-40.038783 	42.011884 	42.041715 	42.454647 
-40.038783 	42.011919 	42.041712 	42.454659 
-40.038696 	42.011957 	42.041715 	42.454669 
-40.038696 	42.011990 	42.041704 	42.454681 
-40.038608 	42.012011 	42.041707 	42.454690 
-40.038608 	42.012041 	42.041719 	42.454703 
-40.038450 	42.012074 	42.041723 	42.454716 
-40.038381 	42.012096 	42.041759 	42.454730 
-40.038310 	42.012124 	42.041782 	42.454744 
-50.032724 	39.991615 	40.019998 	40.417410 
-50.032608 	39.991652 	40.020023 	40.417437 
-50.032505 	39.991686 	40.020055 	40.417461 
-50.032412 	39.991718 	40.020073 	40.417490 
-50.032412 	39.991746 	40.020082 	40.417515 
-50.032219 	39.991767 	40.020083 	40.417538 
-50.032136 	39.991791 	40.020093 	40.417563 
-50.032019 	39.991818 	40.020100 	40.417591 
-50.031910 	39.991845 	40.020113 	40.417617 
-50.031808 	39.991864 	40.020122 	40.417646 
-50.031690 	39.991886 	40.020130 	40.417674 
-50.031596 	39.991913 	40.020149 	40.417699 
-50.031514 	39.991939 	40.020171 	40.417721 
-50.031443 	39.991961 	40.020186 	40.417741 
-50.031443 	39.991985 	40.020193 	40.417758 
-50.031345 	39.992004 	40.020201 	40.417777 
-50.031345 	39.992015 	40.020217 	40.417796 
-50.031284 	39.992032 	40.020233 	40.417811 
-50.031165 	39.992050 	40.020252 	40.417824 
-50.031117 	39.992060 	40.020269 	40.417839 
-50.031117 	39.992070 	40.020285 	40.417853 
-50.031045 	39.992083 	40.020305 	40.417867 
-50.030999 	39.992104 	40.020328 	40.417881 
-50.030957 	39.992122 	40.020350 	40.417893 
-50.030862 	39.992146 	40.020374 	40.417906 
-50.030767 	39.992161 	40.020401 	40.417922 
-50.030767 	39.992178 	40.020432 	40.417941 
-50.030601 	39.992203 	40.020458 	40.417962 
-50.030601 	39.992224 	40.020469 	40.417984 
-50.030502 	39.992245 	40.020492 	40.418003 
-60.017980 	37.963710 	37.993403 	38.374737 
-60.017890 	37.963707 	37.993424 	38.374756 
-60.017890 	37.963699 	37.993443 	38.374776 
-60.017613 	37.963701 	37.993460 	38.374798 
-60.017613 	37.963698 	37.993472 	38.374819 
-60.017467 	37.963709 	37.993485 	38.374842 
-60.017348 	37.963718 	37.993501 	38.374866 
-60.017091 	37.963703 	37.993516 	38.374889 
-60.017032 	37.963683 	37.993529 	38.374910 
-60.016971 	37.963671 	37.993539 	38.374934 
-60.016931 	37.963680 	37.993572 	38.374958 
-60.016911 	37.963635 	37.993605 	38.374979 
-60.016911 	37.963572 	37.993631 	38.374991 
-60.016954 	37.963593 	37.993653 	38.375008 
-60.016954 	37.963597 	37.993669 	38.375022 
-60.016955 	37.963560 	37.993682 	38.375034 
-60.016889 	37.963557 	37.993691 	38.375046 
-60.016811 	37.963576 	37.993696 	38.375063 
-60.016762 	37.963581 	37.993702 	38.375082 
-60.016612 	37.963592 	37.993705 	38.375097 
-60.016612 	37.963612 	37.993708 	38.375115 
-60.016536 	37.963626 	37.993710 	38.375135 
-60.016427 	37.963629 	37.993713 	38.375154 
-60.016349 	37.963640 	37.993714 	38.375174 
-60.016323 	37.963634 	37.993713 	38.375196 
-60.016371 	37.963613 	37.993715 	38.375212 
-60.016371 	37.963604 	37.993719 	38.375223 
-60.016436 	37.963590 	37.993721 	38.375236 
-60.016436 	37.963573 	37.993733 	38.375248 
-60.016444 	37.963563 	37.993747 	38.375255 
