1/7/2013 10:51 AM
nDataPerSetPoint: 40
Temperature Calibration
Reference(C), Heated 812452A(Ohm), Heated 812452B(Ohm), FastResp 3109(Ohm)
29.870785 	55.940199 	55.930289 	55.128326 
29.870658 	55.940181 	55.930268 	55.128285 
29.870503 	55.940164 	55.930253 	55.128272 
29.870333 	55.940143 	55.930232 	55.128265 
29.870161 	55.940119 	55.930207 	55.128234 
29.870022 	55.940096 	55.930183 	55.128201 
29.869893 	55.940072 	55.930158 	55.128165 
29.869812 	55.940049 	55.930133 	55.128157 
29.869770 	55.940027 	55.930109 	55.128163 
29.869749 	55.940008 	55.930092 	55.128146 
29.869713 	55.939991 	55.930076 	55.128145 
29.869627 	55.939979 	55.930062 	55.128139 
29.869584 	55.939964 	55.930048 	55.128114 
29.869586 	55.939950 	55.930037 	55.128106 
29.869521 	55.939942 	55.930029 	55.128090 
29.869471 	55.939932 	55.930017 	55.128097 
29.869417 	55.939920 	55.930005 	55.128077 
29.869368 	55.939910 	55.929994 	55.128074 
29.869341 	55.939903 	55.929986 	55.128088 
29.869338 	55.939899 	55.929983 	55.128096 
29.869398 	55.939897 	55.929982 	55.128101 
29.869454 	55.939901 	55.929986 	55.128110 
29.869508 	55.939908 	55.929992 	55.128109 
29.869548 	55.939916 	55.929998 	55.128100 
29.869588 	55.939923 	55.930005 	55.128113 
29.869640 	55.939930 	55.930012 	55.128125 
29.869674 	55.939936 	55.930017 	55.128136 
29.869723 	55.939940 	55.930019 	55.128138 
29.869749 	55.939943 	55.930020 	55.128140 
29.869773 	55.939948 	55.930025 	55.128149 
29.869783 	55.939956 	55.930030 	55.128172 
29.869753 	55.939959 	55.930033 	55.128201 
29.869693 	55.939955 	55.930027 	55.128202 
29.869610 	55.939944 	55.930015 	55.128179 
29.869541 	55.939930 	55.930001 	55.128154 
29.869413 	55.939913 	55.929986 	55.128146 
29.869276 	55.939888 	55.929959 	55.128136 
29.869091 	55.939859 	55.929931 	55.128110 
29.868862 	55.939825 	55.929896 	55.128097 
29.868683 	55.939789 	55.929858 	55.128078 
19.875814 	53.970445 	53.959746 	53.260127 
19.875882 	53.970463 	53.959764 	53.260154 
19.875990 	53.970482 	53.959785 	53.260154 
19.876153 	53.970502 	53.959806 	53.260168 
19.876272 	53.970528 	53.959834 	53.260163 
19.876410 	53.970551 	53.959856 	53.260183 
19.876529 	53.970572 	53.959878 	53.260204 
19.876718 	53.970595 	53.959903 	53.260242 
19.876913 	53.970628 	53.959938 	53.260280 
19.877179 	53.970667 	53.959976 	53.260306 
19.877479 	53.970712 	53.960020 	53.260364 
19.877798 	53.970762 	53.960072 	53.260412 
19.878052 	53.970809 	53.960116 	53.260458 
19.878245 	53.970848 	53.960155 	53.260503 
19.878440 	53.970886 	53.960192 	53.260554 
19.878649 	53.970922 	53.960230 	53.260614 
19.878809 	53.970958 	53.960266 	53.260648 
19.878934 	53.970993 	53.960301 	53.260686 
19.879040 	53.971025 	53.960333 	53.260714 
19.879088 	53.971054 	53.960357 	53.260726 
19.879113 	53.971075 	53.960376 	53.260715 
19.879124 	53.971084 	53.960383 	53.260698 
19.879070 	53.971085 	53.960383 	53.260720 
19.879025 	53.971080 	53.960378 	53.260739 
19.878982 	53.971069 	53.960369 	53.260766 
19.879033 	53.971061 	53.960362 	53.260792 
19.879145 	53.971053 	53.960361 	53.260809 
19.879300 	53.971065 	53.960373 	53.260828 
19.879472 	53.971079 	53.960387 	53.260816 
19.879661 	53.971100 	53.960407 	53.260822 
19.879817 	53.971122 	53.960430 	53.260830 
19.879932 	53.971151 	53.960458 	53.260848 
19.880023 	53.971176 	53.960480 	53.260855 
19.880101 	53.971198 	53.960501 	53.260860 
19.880169 	53.971217 	53.960518 	53.260906 
19.880200 	53.971235 	53.960537 	53.260925 
19.880177 	53.971247 	53.960548 	53.260919 
19.880159 	53.971257 	53.960558 	53.260920 
19.880131 	53.971256 	53.960556 	53.260918 
19.880046 	53.971247 	53.960549 	53.260918 
9.891613 	51.996661 	51.985306 	51.388186 
9.891619 	51.996668 	51.985310 	51.388190 
9.891635 	51.996671 	51.985313 	51.388181 
9.891696 	51.996674 	51.985318 	51.388194 
9.891786 	51.996682 	51.985326 	51.388209 
9.891835 	51.996689 	51.985334 	51.388222 
9.891876 	51.996696 	51.985342 	51.388234 
9.891882 	51.996700 	51.985348 	51.388249 
9.891880 	51.996709 	51.985356 	51.388232 
9.891824 	51.996714 	51.985359 	51.388225 
9.891714 	51.996715 	51.985358 	51.388205 
9.891618 	51.996704 	51.985350 	51.388169 
9.891555 	51.996691 	51.985339 	51.388157 
9.891500 	51.996682 	51.985331 	51.388129 
9.891528 	51.996676 	51.985326 	51.388134 
9.891679 	51.996683 	51.985332 	51.388176 
9.891939 	51.996701 	51.985354 	51.388207 
9.892238 	51.996736 	51.985390 	51.388254 
9.892524 	51.996780 	51.985432 	51.388308 
9.892773 	51.996829 	51.985481 	51.388383 
9.892991 	51.996879 	51.985534 	51.388446 
9.893193 	51.996919 	51.985573 	51.388478 
9.893356 	51.996954 	51.985608 	51.388524 
9.893506 	51.996986 	51.985640 	51.388545 
9.893678 	51.997018 	51.985672 	51.388576 
9.893894 	51.997049 	51.985705 	51.388599 
9.894118 	51.997084 	51.985741 	51.388612 
9.894256 	51.997121 	51.985776 	51.388640 
9.894376 	51.997154 	51.985808 	51.388671 
9.894402 	51.997179 	51.985833 	51.388703 
9.894482 	51.997194 	51.985844 	51.388713 
9.894570 	51.997202 	51.985855 	51.388728 
9.894575 	51.997216 	51.985866 	51.388738 
9.894592 	51.997219 	51.985867 	51.388735 
9.894574 	51.997216 	51.985863 	51.388735 
9.894558 	51.997216 	51.985863 	51.388721 
9.894570 	51.997216 	51.985862 	51.388758 
9.894572 	51.997219 	51.985865 	51.388761 
9.894587 	51.997219 	51.985868 	51.388776 
9.894667 	51.997226 	51.985877 	51.388791 
-0.099246 	50.015482 	50.003593 	49.509460 
-0.099292 	50.015476 	50.003588 	49.509480 
-0.099353 	50.015467 	50.003577 	49.509471 
-0.099388 	50.015453 	50.003564 	49.509475 
-0.099456 	50.015438 	50.003551 	49.509476 
-0.099483 	50.015425 	50.003542 	49.509471 
-0.099509 	50.015422 	50.003539 	49.509468 
-0.099505 	50.015426 	50.003543 	49.509479 
-0.099472 	50.015436 	50.003552 	49.509491 
-0.099444 	50.015444 	50.003558 	49.509488 
-0.099438 	50.015447 	50.003562 	49.509491 
-0.099434 	50.015444 	50.003555 	49.509526 
-0.099360 	50.015443 	50.003557 	49.509536 
-0.099302 	50.015447 	50.003561 	49.509560 
-0.099213 	50.015456 	50.003574 	49.509574 
-0.099039 	50.015481 	50.003598 	49.509598 
-0.098789 	50.015507 	50.003624 	49.509631 
-0.098473 	50.015539 	50.003660 	49.509675 
-0.098132 	50.015584 	50.003706 	49.509697 
-0.097898 	50.015635 	50.003759 	49.509747 
-0.097703 	50.015681 	50.003812 	49.509786 
-0.097511 	50.015723 	50.003853 	49.509822 
-0.097400 	50.015763 	50.003891 	49.509890 
-0.097269 	50.015799 	50.003926 	49.509920 
-0.097131 	50.015831 	50.003957 	49.509964 
-0.096967 	50.015861 	50.003988 	49.510009 
-0.096800 	50.015891 	50.004019 	49.510044 
-0.096657 	50.015917 	50.004043 	49.510048 
-0.096526 	50.015943 	50.004069 	49.510050 
-0.096392 	50.015966 	50.004091 	49.510058 
-0.096245 	50.015984 	50.004113 	49.510061 
-0.096086 	50.016005 	50.004133 	49.510075 
-0.095909 	50.016031 	50.004157 	49.510096 
-0.095697 	50.016057 	50.004186 	49.510121 
-0.095436 	50.016095 	50.004225 	49.510163 
-0.095208 	50.016137 	50.004266 	49.510216 
-0.094985 	50.016177 	50.004306 	49.510259 
-0.094822 	50.016211 	50.004339 	49.510274 
-0.094699 	50.016236 	50.004366 	49.510274 
-0.094670 	50.016256 	50.004384 	49.510286 
-10.081638 	48.029496 	48.017212 	47.625731 
-10.081426 	48.029532 	48.017248 	47.625752 
-10.081218 	48.029562 	48.017277 	47.625769 
-10.081054 	48.029591 	48.017307 	47.625822 
-10.080926 	48.029618 	48.017336 	47.625864 
-10.080745 	48.029648 	48.017367 	47.625916 
-10.080508 	48.029684 	48.017405 	47.625957 
-10.080169 	48.029727 	48.017452 	47.625993 
-10.079793 	48.029779 	48.017506 	47.626031 
-10.079388 	48.029838 	48.017568 	47.626085 
-10.079050 	48.029900 	48.017631 	47.626128 
-10.078725 	48.029959 	48.017691 	47.626191 
-10.078458 	48.030016 	48.017749 	47.626231 
-10.078221 	48.030070 	48.017801 	47.626258 
-10.078000 	48.030119 	48.017848 	47.626280 
-10.077816 	48.030164 	48.017890 	47.626297 
-10.077688 	48.030200 	48.017925 	47.626298 
-10.077689 	48.030226 	48.017950 	47.626303 
-10.077823 	48.030241 	48.017965 	47.626285 
-10.078051 	48.030240 	48.017963 	47.626277 
-10.078335 	48.030225 	48.017947 	47.626281 
-10.078604 	48.030196 	48.017919 	47.626259 
-10.078850 	48.030161 	48.017885 	47.626214 
-10.079040 	48.030131 	48.017852 	47.626211 
-10.079150 	48.030102 	48.017821 	47.626189 
-10.079213 	48.030074 	48.017796 	47.626177 
-10.079167 	48.030062 	48.017783 	47.626189 
-10.079048 	48.030057 	48.017783 	47.626208 
-10.078843 	48.030068 	48.017795 	47.626223 
-10.078642 	48.030088 	48.017815 	47.626264 
-10.078441 	48.030113 	48.017845 	47.626279 
-10.078292 	48.030147 	48.017878 	47.626315 
-10.078106 	48.030182 	48.017913 	47.626353 
-10.077907 	48.030218 	48.017947 	47.626375 
-10.077658 	48.030259 	48.017986 	47.626399 
-10.077502 	48.030304 	48.018027 	47.626406 
-10.077409 	48.030341 	48.018060 	47.626407 
-10.077452 	48.030364 	48.018079 	47.626418 
-10.077559 	48.030366 	48.018077 	47.626405 
-10.077728 	48.030360 	48.018068 	47.626380 
-20.070076 	46.036179 	46.023579 	45.734650 
-20.069904 	46.036208 	46.023610 	45.734683 
-20.069701 	46.036238 	46.023641 	45.734708 
-20.069503 	46.036263 	46.023665 	45.734743 
-20.069385 	46.036289 	46.023692 	45.734768 
-20.069204 	46.036313 	46.023717 	45.734800 
-20.069017 	46.036341 	46.023747 	45.734834 
-20.068752 	46.036378 	46.023783 	45.734886 
-20.068480 	46.036417 	46.023821 	45.734935 
-20.068223 	46.036456 	46.023862 	45.734969 
-20.068064 	46.036502 	46.023905 	45.734994 
-20.067952 	46.036544 	46.023947 	45.735028 
-20.067886 	46.036578 	46.023980 	45.735050 
-20.067823 	46.036605 	46.024006 	45.735087 
-20.067740 	46.036625 	46.024027 	45.735129 
-20.067657 	46.036646 	46.024044 	45.735155 
-20.067576 	46.036668 	46.024066 	45.735186 
-20.067412 	46.036687 	46.024081 	45.735202 
-20.067208 	46.036706 	46.024101 	45.735192 
-20.066975 	46.036729 	46.024123 	45.735196 
-20.066844 	46.036757 	46.024151 	45.735201 
-20.066735 	46.036782 	46.024176 	45.735194 
-20.066666 	46.036801 	46.024194 	45.735211 
-20.066620 	46.036815 	46.024209 	45.735239 
-20.066540 	46.036830 	46.024225 	45.735256 
-20.066510 	46.036841 	46.024231 	45.735255 
-20.066488 	46.036844 	46.024236 	45.735245 
-20.066488 	46.036854 	46.024246 	45.735276 
-20.066391 	46.036863 	46.024254 	45.735285 
-20.066246 	46.036867 	46.024261 	45.735317 
-20.066140 	46.036879 	46.024271 	45.735338 
-20.066078 	46.036890 	46.024283 	45.735356 
-20.066027 	46.036907 	46.024299 	45.735365 
-20.066021 	46.036927 	46.024319 	45.735355 
-20.066032 	46.036944 	46.024336 	45.735346 
-20.066042 	46.036960 	46.024352 	45.735364 
-20.066032 	46.036969 	46.024358 	45.735371 
-20.066081 	46.036977 	46.024368 	45.735377 
-20.066118 	46.036983 	46.024375 	45.735366 
-20.066161 	46.036986 	46.024377 	45.735353 
-30.051246 	44.037905 	44.025049 	43.839699 
-30.051132 	44.037935 	44.025078 	43.839732 
-30.051079 	44.037961 	44.025104 	43.839755 
-30.050989 	44.037986 	44.025132 	43.839772 
-30.050918 	44.038011 	44.025159 	43.839768 
-30.050872 	44.038036 	44.025183 	43.839774 
-30.050803 	44.038051 	44.025196 	43.839787 
-30.050729 	44.038062 	44.025208 	43.839801 
-30.050682 	44.038072 	44.025218 	43.839808 
-30.050637 	44.038083 	44.025230 	43.839832 
-30.050551 	44.038091 	44.025235 	43.839845 
-30.050476 	44.038098 	44.025245 	43.839863 
-30.050396 	44.038107 	44.025253 	43.839884 
-30.050305 	44.038116 	44.025262 	43.839917 
-30.050239 	44.038129 	44.025273 	43.839938 
-30.050150 	44.038141 	44.025285 	43.839956 
-30.050028 	44.038150 	44.025294 	43.839966 
-30.049900 	44.038159 	44.025306 	43.839972 
-30.049900 	44.038177 	44.025326 	43.839985 
-30.049806 	44.038198 	44.025346 	43.840002 
-30.049740 	44.038210 	44.025360 	43.840016 
-30.049667 	44.038221 	44.025374 	43.840012 
-30.049586 	44.038237 	44.025389 	43.840016 
-30.049529 	44.038256 	44.025408 	43.840036 
-30.049463 	44.038268 	44.025418 	43.840045 
-30.049424 	44.038278 	44.025430 	43.840049 
-30.049350 	44.038290 	44.025441 	43.840042 
-30.049264 	44.038303 	44.025454 	43.840044 
-30.049146 	44.038318 	44.025466 	43.840053 
-30.049051 	44.038330 	44.025479 	43.840067 
-30.049011 	44.038343 	44.025491 	43.840092 
-30.048968 	44.038353 	44.025499 	43.840099 
-30.048905 	44.038365 	44.025509 	43.840109 
-30.048889 	44.038374 	44.025516 	43.840115 
-30.048889 	44.038380 	44.025520 	43.840136 
-30.048769 	44.038386 	44.025528 	43.840150 
-30.048696 	44.038392 	44.025534 	43.840163 
-30.048624 	44.038401 	44.025543 	43.840164 
-30.048554 	44.038411 	44.025554 	43.840164 
-30.048471 	44.038418 	44.025561 	43.840167 
-40.038355 	42.032107 	42.018956 	41.938522 
-40.038265 	42.032141 	42.018987 	41.938564 
-40.038204 	42.032166 	42.019014 	41.938602 
-40.038195 	42.032187 	42.019035 	41.938629 
-40.038188 	42.032206 	42.019052 	41.938669 
-40.038146 	42.032221 	42.019066 	41.938703 
-40.038119 	42.032232 	42.019078 	41.938725 
-40.038033 	42.032248 	42.019095 	41.938744 
-40.037888 	42.032265 	42.019113 	41.938764 
-40.037761 	42.032283 	42.019128 	41.938785 
-40.037620 	42.032304 	42.019147 	41.938803 
-40.037530 	42.032328 	42.019170 	41.938824 
-40.037521 	42.032349 	42.019192 	41.938853 
-40.037541 	42.032369 	42.019216 	41.938883 
-40.037548 	42.032388 	42.019233 	41.938910 
-40.037578 	42.032398 	42.019245 	41.938936 
-40.037603 	42.032404 	42.019252 	41.938966 
-40.037563 	42.032404 	42.019255 	41.938996 
-40.037498 	42.032406 	42.019258 	41.939026 
-40.037439 	42.032411 	42.019265 	41.939057 
-40.037365 	42.032417 	42.019273 	41.939073 
-40.037284 	42.032431 	42.019287 	41.939080 
-40.037205 	42.032444 	42.019300 	41.939084 
-40.037078 	42.032458 	42.019315 	41.939095 
-40.036958 	42.032475 	42.019333 	41.939110 
-40.036897 	42.032500 	42.019357 	41.939133 
-40.036863 	42.032522 	42.019378 	41.939160 
-40.036827 	42.032541 	42.019398 	41.939188 
-40.036787 	42.032558 	42.019415 	41.939211 
-40.036708 	42.032573 	42.019430 	41.939227 
-40.036615 	42.032588 	42.019443 	41.939239 
-40.036506 	42.032599 	42.019458 	41.939240 
-40.036413 	42.032612 	42.019470 	41.939249 
-40.036342 	42.032626 	42.019485 	41.939264 
-40.036267 	42.032641 	42.019499 	41.939283 
-40.036218 	42.032655 	42.019511 	41.939299 
-40.036148 	42.032669 	42.019524 	41.939315 
-40.036092 	42.032682 	42.019537 	41.939336 
-40.036080 	42.032695 	42.019550 	41.939354 
-40.036054 	42.032707 	42.019562 	41.939364 
-50.031522 	40.018920 	40.005626 	40.030437 
-50.031329 	40.018939 	40.005643 	40.030470 
-50.031152 	40.018962 	40.005665 	40.030505 
-50.031004 	40.018991 	40.005692 	40.030538 
-50.030896 	40.019018 	40.005717 	40.030574 
-50.030830 	40.019046 	40.005744 	40.030602 
-50.030823 	40.019071 	40.005770 	40.030625 
-50.030795 	40.019096 	40.005792 	40.030639 
-50.030752 	40.019116 	40.005812 	40.030648 
-50.030726 	40.019132 	40.005827 	40.030666 
-50.030726 	40.019147 	40.005842 	40.030690 
-50.030602 	40.019163 	40.005858 	40.030697 
-50.030510 	40.019179 	40.005871 	40.030708 
-50.030442 	40.019192 	40.005887 	40.030713 
-50.030367 	40.019208 	40.005903 	40.030719 
-50.030262 	40.019226 	40.005920 	40.030730 
-50.030192 	40.019243 	40.005938 	40.030746 
-50.030128 	40.019261 	40.005954 	40.030761 
-50.030026 	40.019278 	40.005971 	40.030778 
-50.029952 	40.019297 	40.005988 	40.030795 
-50.029899 	40.019314 	40.006005 	40.030814 
-50.029835 	40.019329 	40.006020 	40.030832 
-50.029794 	40.019347 	40.006036 	40.030843 
-50.029759 	40.019361 	40.006049 	40.030858 
-50.029698 	40.019373 	40.006062 	40.030875 
-50.029595 	40.019389 	40.006078 	40.030890 
-50.029530 	40.019402 	40.006090 	40.030900 
-50.029465 	40.019417 	40.006104 	40.030899 
-50.029358 	40.019430 	40.006118 	40.030891 
-50.029273 	40.019447 	40.006133 	40.030884 
-50.029230 	40.019461 	40.006145 	40.030878 
-50.029220 	40.019472 	40.006154 	40.030874 
-50.029204 	40.019480 	40.006161 	40.030867 
-50.029176 	40.019485 	40.006166 	40.030864 
-50.029117 	40.019493 	40.006174 	40.030854 
-50.029057 	40.019503 	40.006183 	40.030854 
-50.029009 	40.019514 	40.006193 	40.030864 
-50.028941 	40.019520 	40.006201 	40.030872 
-50.028924 	40.019529 	40.006209 	40.030880 
-50.028886 	40.019539 	40.006218 	40.030879 
-60.021534 	37.999582 	37.986227 	38.115829 
-60.021412 	37.999609 	37.986253 	38.115860 
-60.021312 	37.999632 	37.986276 	38.115892 
-60.021205 	37.999654 	37.986300 	38.115917 
-60.021078 	37.999675 	37.986322 	38.115944 
-60.020898 	37.999696 	37.986342 	38.115985 
-60.020665 	37.999715 	37.986361 	38.116029 
-60.020494 	37.999739 	37.986385 	38.116073 
-60.020276 	37.999767 	37.986413 	38.116106 
-60.020026 	37.999800 	37.986452 	38.116136 
-60.019733 	37.999835 	37.986485 	38.116172 
-60.019441 	37.999863 	37.986515 	38.116208 
-60.019264 	37.999891 	37.986544 	38.116247 
-60.019117 	37.999926 	37.986581 	38.116281 
-60.018912 	37.999966 	37.986620 	38.116312 
-60.018774 	38.000007 	37.986662 	38.116347 
-60.018681 	38.000048 	37.986703 	38.116381 
-60.018616 	38.000088 	37.986744 	38.116422 
-60.018672 	38.000129 	37.986784 	38.116456 
-60.018661 	38.000169 	37.986824 	38.116486 
-60.018685 	38.000206 	37.986862 	38.116512 
-60.018651 	38.000245 	37.986900 	38.116531 
-60.018738 	38.000284 	37.986936 	38.116545 
-60.018841 	38.000320 	37.986969 	38.116555 
-60.018990 	38.000344 	37.986994 	38.116560 
-60.019159 	38.000361 	37.987010 	38.116562 
-60.019313 	38.000369 	37.987019 	38.116565 
-60.019424 	38.000371 	37.987020 	38.116553 
-60.019565 	38.000369 	37.987017 	38.116536 
-60.019699 	38.000359 	37.987008 	38.116518 
-60.019854 	38.000339 	37.986988 	38.116503 
-60.019978 	38.000314 	37.986964 	38.116488 
-60.020117 	38.000288 	37.986940 	38.116471 
-60.020223 	38.000264 	37.986918 	38.116461 
-60.020305 	38.000243 	37.986897 	38.116456 
-60.020395 	38.000224 	37.986880 	38.116450 
-60.020527 	38.000207 	37.986865 	38.116440 
-60.020542 	38.000189 	37.986850 	38.116430 
-60.020540 	38.000170 	37.986830 	38.116424 
-60.020508 	38.000155 	37.986815 	38.116416 
