8/26/2014 7:25 AM
nsamplesPerSetPoint: 50
RAF probes 3245, 312452, 40c to -60C, 10deg steps, 50 samples
Reference(C), 3245(Ohm),  812452A(Ohm),  812452B(Ohm)
39.871328 	57.956355 	57.901293 	57.896340 
39.871104 	57.956353 	57.901249 	57.896295 
39.870857 	57.956309 	57.901195 	57.896239 
39.870591 	57.956281 	57.901143 	57.896184 
39.870306 	57.956246 	57.901087 	57.896126 
39.869987 	57.956181 	57.901024 	57.896061 
39.869666 	57.956111 	57.900962 	57.896000 
39.869384 	57.956091 	57.900906 	57.895944 
39.869130 	57.956064 	57.900857 	57.895892 
39.868880 	57.956030 	57.900813 	57.895849 
39.868662 	57.956011 	57.900776 	57.895813 
39.868448 	57.955975 	57.900743 	57.895777 
39.868238 	57.955940 	57.900704 	57.895739 
39.868019 	57.955909 	57.900664 	57.895701 
39.867798 	57.955865 	57.900623 	57.895659 
39.867583 	57.955811 	57.900577 	57.895613 
39.867381 	57.955791 	57.900542 	57.895579 
39.867202 	57.955741 	57.900503 	57.895541 
39.867045 	57.955705 	57.900468 	57.895510 
39.866925 	57.955665 	57.900439 	57.895482 
39.866855 	57.955669 	57.900426 	57.895466 
39.866785 	57.955682 	57.900404 	57.895448 
39.866738 	57.955695 	57.900391 	57.895435 
39.866720 	57.955702 	57.900382 	57.895430 
39.866731 	57.955729 	57.900382 	57.895432 
39.866772 	57.955770 	57.900392 	57.895443 
39.866843 	57.955822 	57.900411 	57.895463 
39.866914 	57.955839 	57.900428 	57.895483 
39.866984 	57.955856 	57.900443 	57.895500 
39.867062 	57.955899 	57.900458 	57.895516 
39.867136 	57.955907 	57.900475 	57.895532
39.867212 	57.955913 	57.900496 	57.895549 
39.867288 	57.955916 	57.900514 	57.895564 
39.867357 	57.955920 	57.900529 	57.895576 
39.867429 	57.955926 	57.900541 	57.895590 
39.867508 	57.955963 	57.900558 	57.895604 
39.867594 	57.956028 	57.900570 	57.895618
39.867678 	57.956034 	57.900585 	57.895634 
39.867762 	57.956054 	57.900599 	57.895651 
39.867846 	57.956067 	57.900613 	57.895660 
39.867923 	57.956099 	57.900623 	57.895671 
39.867994 	57.956101 	57.900632 	57.895681 
39.868076 	57.956117 	57.900649 	57.895701 
39.868183 	57.956121 	57.900663 	57.895715 
39.868274 	57.956147 	57.900679 	57.895733 
39.868345 	57.956170 	57.900697 	57.895751 
39.868397 	57.956170 	57.900712 	57.895760 
39.868433 	57.956187 	57.900723 	57.895772 
39.868467 	57.956180 	57.900737 	57.895787 
39.868501 	57.956211 	57.900749 	57.895803 
29.869532 	55.983201 	55.938255 	55.930663 
29.869637 	55.983237 	55.938272 	55.930681 
29.869745 	55.983245 	55.938290 	55.930698 
29.869830 	55.983276 	55.938303 	55.930709 
29.869893 	55.983310 	55.938308 	55.930718 
29.869938 	55.983337 	55.938312 	55.930719 
29.869970 	55.983345 	55.938313 	55.930720 
29.870012 	55.983349 	55.938321 	55.930728 
29.870086 	55.983382 	55.938337 	55.930748 
29.870175 	55.983371 	55.938352 	55.930763 
29.870256 	55.983382 	55.938369 	55.930781 
29.870308 	55.983380 	55.938380 	55.930793 
29.870320 	55.983348 	55.938383 	55.930793 
29.870313 	55.983342 	55.938380 	55.930788 
29.870304 	55.983326 	55.938375 	55.930786 
29.870341 	55.983339 	55.938374 	55.930787 
29.870414 	55.983332 	55.938377 	55.930792 
29.870511 	55.983334 	55.938389 	55.930804 
29.870646 	55.983351 	55.938412 	55.930829 
29.870793 	55.983364 	55.938438 	55.930855 
29.870878 	55.983388 	55.938458 	55.930875 
29.870915 	55.983384 	55.938466 	55.930877 
29.870929 	55.983382 	55.938464 	55.930874 
29.870936 	55.983378 	55.938460 	55.930872 
29.870951 	55.983376 	55.938460 	55.930873 
29.870994 	55.983372 	55.938468 	55.930881 
29.871090 	55.983405 	55.938489 	55.930908 
29.871210 	55.983428 	55.938528 	55.930943 
29.871336 	55.983485 	55.938556 	55.930972 
29.871472 	55.983532 	55.938585 	55.931001 
29.871574 	55.983534 	55.938610 	55.931026 
29.871657 	55.983513 	55.938633 	55.931044 
29.871716 	55.983526 	55.938645 	55.931057 
29.871778 	55.983505 	55.938659 	55.931068 
29.871850 	55.983486 	55.938673 	55.931082 
29.871913 	55.983479 	55.938693 	55.931101 
29.871974 	55.983490 	55.938706 	55.931115 
29.872028 	55.983503 	55.938715 	55.931126 
29.872055 	55.983486 	55.938721 	55.931128 
29.872054 	55.983495 	55.938719 	55.931124 
29.872055 	55.983508 	55.938717 	55.931122 
29.872059 	55.983523 	55.938718 	55.931120 
29.872109 	55.983566 	55.938728 	55.931131 
29.872168 	55.983559 	55.938746 	55.931150 
29.872234 	55.983588 	55.938770 	55.931172 
29.872293 	55.983574 	55.938791 	55.931191 
29.872345 	55.983568 	55.938809 	55.931209 
29.872383 	55.983563 	55.938820 	55.931216 
29.872389 	55.983559 	55.938828 	55.931219 
29.872395 	55.983546 	55.938827 	55.931219 
19.883461 	54.006380 	53.972104 	53.961945 
19.883483 	54.006416 	53.972106 	53.961943 
19.883485 	54.006390 	53.972097 	53.961935 
19.883456 	54.006379 	53.972088 	53.961922 
19.883423 	54.006377 	53.972071 	53.961908 
19.883380 	54.006382 	53.972063 	53.961897 
19.883344 	54.006371 	53.972053 	53.961889 
19.883303 	54.006362 	53.972045 	53.961884 
19.883262 	54.006357 	53.972042 	53.961879 
19.883210 	54.006358 	53.972043 	53.961877 
19.883162 	54.006369 	53.972037 	53.961870 
19.883124 	54.006380 	53.972027 	53.961862 
19.883089 	54.006372 	53.972021 	53.961853 
19.883098 	54.006362 	53.972023 	53.961857 
19.883150 	54.006345 	53.972035 	53.961871 
19.883221 	54.006367 	53.972051 	53.961889 
19.883284 	54.006375 	53.972069 	53.961906 
19.883332 	54.006360 	53.972076 	53.961913 
19.883333 	54.006327 	53.972085 	53.961920 
19.883320 	54.006301 	53.972086 	53.961920 
19.883275 	54.006271 	53.972077 	53.961913 
19.883216 	54.006231 	53.972065 	53.961899 
19.883181 	54.006245 	53.972071 	53.961904 
19.883177 	54.006251 	53.972074 	53.961910 
19.883208 	54.006272 	53.972084 	53.961926 
19.883272 	54.006311 	53.972104 	53.961945 
19.883338 	54.006339 	53.972123 	53.961961 
19.883380 	54.006369 	53.972133 	53.961968 
19.883400 	54.006362 	53.972142 	53.961976 
19.883408 	54.006356 	53.972143 	53.961982 
19.883428 	54.006356 	53.972145 	53.961986 
19.883458 	54.006330 	53.972155 	53.962003 
19.883490 	54.006351 	53.972175 	53.962024 
19.883544 	54.006351 	53.972192 	53.962044 
19.883604 	54.006379 	53.972216 	53.962062 
19.883668 	54.006401 	53.972233 	53.962078 
19.883744 	54.006424 	53.972252 	53.962095 
19.883803 	54.006440 	53.972268 	53.962104 
19.883850 	54.006443 	53.972271 	53.962106 
19.883891 	54.006441 	53.972264 	53.962104 
19.883925 	54.006411 	53.972263 	53.962108 
19.883981 	54.006409 	53.972273 	53.962121 
19.884045 	54.006415 	53.972289 	53.962137 
19.884092 	54.006411 	53.972295 	53.962142 
19.884118 	54.006418 	53.972288 	53.962140 
19.884139 	54.006411 	53.972288 	53.962140 
19.884151 	54.006434 	53.972284 	53.962137 
19.884164 	54.006461 	53.972285 	53.962141 
19.884220 	54.006456 	53.972292 	53.962148 
19.884290 	54.006459 	53.972305 	53.962159 
9.897623 	52.023685 	51.999404 	51.987319 
9.897721 	52.023692 	51.999424 	51.987337 
9.897800 	52.023717 	51.999439 	51.987350 
9.897861 	52.023726 	51.999443 	51.987357 
9.897898 	52.023728 	51.999450 	51.987364 
9.897923 	52.023752 	51.999455 	51.987371 
9.897946 	52.023784 	51.999467 	51.987380 
9.897976 	52.023789 	51.999477 	51.987391 
9.898029 	52.023822 	51.999492 	51.987407 
9.898098 	52.023840 	51.999509 	51.987423 
9.898145 	52.023846 	51.999526 	51.987435 
9.898189 	52.023828 	51.999535 	51.987445 
9.898213 	52.023806 	51.999541 	51.987451 
9.898234 	52.023799 	51.999550 	51.987459 
9.898264 	52.023815 	51.999559 	51.987472 
9.898297 	52.023810 	51.999575 	51.987487 
9.898337 	52.023809 	51.999584 	51.987499 
9.898387 	52.023832 	51.999595 	51.987505 
9.898427 	52.023808 	51.999598 	51.987511 
9.898433 	52.023799 	51.999601 	51.987515 
9.898446 	52.023833 	51.999601 	51.987514 
9.898456 	52.023833 	51.999605 	51.987519 
9.898477 	52.023832 	51.999617 	51.987529 
9.898534 	52.023848 	51.999631 	51.987547 
9.898628 	52.023866 	51.999652 	51.987569 
9.898714 	52.023877 	51.999672 	51.987589 
9.898783 	52.023865 	51.999691 	51.987606 
9.898835 	52.023854 	51.999702 	51.987619 
9.898864 	52.023856 	51.999713 	51.987627 
9.898870 	52.023856 	51.999715 	51.987629 
9.898857 	52.023871 	51.999709 	51.987625 
9.898836 	52.023886 	51.999707 	51.987625 
9.898810 	52.023880 	51.999704 	51.987620 
9.898797 	52.023886 	51.999707 	51.987625 
9.898804 	52.023904 	51.999710 	51.987629 
9.898823 	52.023890 	51.999714 	51.987632 
9.898866 	52.023892 	51.999718 	51.987637 
9.898897 	52.023894 	51.999717 	51.987635 
9.898914 	52.023890 	51.999716 	51.987635 
9.898921 	52.023872 	51.999718 	51.987637 
9.898949 	52.023883 	51.999721 	51.987639 
9.898985 	52.023921 	51.999724 	51.987641 
9.899032 	52.023945 	51.999727 	51.987643 
9.899100 	52.023987 	51.999731 	51.987651 
9.899155 	52.024000 	51.999739 	51.987660 
9.899208 	52.024003 	51.999745 	51.987669 
9.899262 	52.024029 	51.999760 	51.987683 
9.899309 	52.024008 	51.999767 	51.987691 
9.899369 	52.024047 	51.999786 	51.987709 
9.899457 	52.024085 	51.999800 	51.987723 
-0.092851 	50.033588 	50.019058 	50.005736 
-0.092781 	50.033601 	50.019073 	50.005761 
-0.092691 	50.033640 	50.019095 	50.005784 
-0.092601 	50.033656 	50.019115 	50.005803 
-0.092523 	50.033683 	50.019130 	50.005812 
-0.092477 	50.033687 	50.019133 	50.005813 
-0.092459 	50.033704 	50.019133 	50.005814 
-0.092461 	50.033683 	50.019122 	50.005808 
-0.092448 	50.033710 	50.019120 	50.005811 
-0.092403 	50.033714 	50.019129 	50.005820 
-0.092336 	50.033736 	50.019141 	50.005830 
-0.092264 	50.033750 	50.019151 	50.005843 
-0.092186 	50.033752 	50.019160 	50.005856 
-0.092127 	50.033755 	50.019175 	50.005866 
-0.092097 	50.033711 	50.019183 	50.005868 
-0.092082 	50.033697 	50.019180 	50.005868 
-0.092076 	50.033671 	50.019176 	50.005865 
-0.092062 	50.033636 	50.019178 	50.005869 
-0.092014 	50.033641 	50.019188 	50.005879 
-0.091944 	50.033662 	50.019198 	50.005892 
-0.091876 	50.033715 	50.019212 	50.005903 
-0.091822 	50.033736 	50.019219 	50.005911 
-0.091775 	50.033749 	50.019224 	50.005912 
-0.091754 	50.033762 	50.019222 	50.005911
-0.091756 	50.033769 	50.019211 	50.005900
-0.091761 	50.033763 	50.019203 	50.005892 
-0.091768 	50.033758 	50.019199 	50.005889 
-0.091761 	50.033754 	50.019199 	50.005885 
-0.091713 	50.033782 	50.019204 	50.005895 
-0.091656 	50.033801 	50.019216 	50.005909 
-0.091584 	50.033808 	50.019230 	50.005925 
-0.091516 	50.033855 	50.019244 	50.005934 
-0.091463 	50.033862 	50.019252 	50.005942 
-0.091441 	50.033866 	50.019254 	50.005945 
-0.091438 	50.033848 	50.019257 	50.005950 
-0.091426 	50.033842 	50.019266 	50.005960 
-0.091396 	50.033852 	50.019273 	50.005968 
-0.091341 	50.033868 	50.019293 	50.005984 
-0.091292 	50.033879 	50.019308 	50.005995 
-0.091264 	50.033877 	50.019316 	50.006002 
-0.091254 	50.033842 	50.019319 	50.006005 
-0.091247 	50.033835 	50.019316 	50.006005 
-0.091243 	50.033839 	50.019322 	50.006012 
-0.091230 	50.033834 	50.019316 	50.006011 
-0.091208 	50.033866 	50.019315 	50.006011 
-0.091145 	50.033903 	50.019329 	50.006024 
-0.091076 	50.033938 	50.019347 	50.006039 
-0.091027 	50.033976 	50.019363 	50.006057 
-0.091023 	50.033980 	50.019364 	50.006059 
-0.091051 	50.033949 	50.019364 	50.006058 
-10.079031 	48.038202 	48.032793 	48.018794 
-10.078967 	48.038231 	48.032810 	48.018808 
-10.078916 	48.038255 	48.032822 	48.018818 
-10.078867 	48.038218 	48.032830 	48.018828 
-10.078821 	48.038219 	48.032840 	48.018838 
-10.078779 	48.038217 	48.032844 	48.018842 
-10.078735 	48.038230 	48.032838 	48.018840 
-10.078702 	48.038198 	48.032833 	48.018836 
-10.078691 	48.038186 	48.032820 	48.018828 
-10.078658 	48.038195 	48.032823 	48.018836 
-10.078609 	48.038246 	48.032834 	48.018850 
-10.078547 	48.038277 	48.032846 	48.018864 
-10.078495 	48.038267 	48.032863 	48.018884 
-10.078422 	48.038258 	48.032881 	48.018898 
-10.078333 	48.038283 	48.018911 	48.018898 
-10.078247 	48.038306 	48.032916 	48.018930 
-10.078168 	48.038302 	48.032928 	48.018936 
-10.078115 	48.038345 	48.032934 	48.018944 
-10.078063 	48.038347 	48.032945 	48.018960 
-10.078022 	48.038357 	48.032960 	48.018974 
-10.077990 	48.038380 	48.032970 	48.018980 
-10.077949 	48.038408 	48.032975 	48.018990 
-10.077891 	48.038398 	48.032986 	48.018999 
-10.077860 	48.038406 	48.032995 	48.019005 
-10.077847 	48.038389 	48.032998 	48.019010 
-10.077851 	48.038357 	48.032995 	48.019009 
-10.077869 	48.038361 	48.032986 	48.019002 
-10.077881 	48.038331 	48.032971 	48.018991 
-10.077878 	48.038334 	48.032976 	48.018992 
-10.077857 	48.038366 	48.032984 	48.018997 
-10.077827 	48.038357 	48.032991 	48.019005 
-10.077782 	48.038342 	48.033002 	48.019020 
-10.077730 	48.038355 	48.033020 	48.019036 
-10.077681 	48.038400 	48.033033 	48.019047 
-10.077646 	48.038403 	48.033047 	48.019061
-10.077624 	48.038407 	48.033059 	48.019073
-10.077610 	48.038405 	48.033078 	48.019080 
-10.077594 	48.038413 	48.033087 	48.019089 
-10.077568 	48.038396 	48.033097 	48.019099 
-10.077533 	48.038406 	48.033104 	48.019106 
-10.077498 	48.038413 	48.033115 	48.019113 
-10.077484 	48.038440 	48.033116 	48.019114 
-10.077477 	48.038449 	48.033113 	48.019113 
-10.077489 	48.038453 	48.033117 	48.019115 
-10.077526 	48.038427 	48.033117 	48.019113 
-10.077575 	48.038400 	48.033104 	48.019099 
-10.077619 	48.038390 	48.033098 	48.019096 
-10.077646 	48.038396 	48.033094 	48.019092 
-10.077653 	48.038414 	48.033091 	48.019088 
-10.077652 	48.038402 	48.033092 	48.019091 
-20.068700 	46.036240 	46.039300 	46.024922 
-20.068645 	46.036234 	46.039306 	46.024931 
-20.068598 	46.036214 	46.039315 	46.024935 
-20.068543 	46.036223 	46.039316 	46.024936 
-20.068482 	46.036240 	46.039325 	46.024946 
-20.068422 	46.036259 	46.039338 	46.024956 
-20.068359 	46.036278 	46.039348 	46.024967 
-20.068306 	46.036279 	46.039369 	46.024984 
-20.068248 	46.036294 	46.039388 	46.025003 
-20.068206 	46.036311 	46.039403 	46.025019 
-20.068168 	46.036287 	46.039412 	46.025027 
-20.068156 	46.036255 	46.039411 	46.025030 
-20.068154 	46.036273 	46.039408 	46.025027 
-20.068159 	46.036266 	46.039418 	46.025036 
-20.068160 	46.036261 	46.039424 	46.025046 
-20.068148 	46.036253 	46.039438 	46.025059 
-20.068117 	46.036285 	46.039438 	46.025059 
-20.068068 	46.036285 	46.039437 	46.025060 
-20.068022 	46.036266 	46.039438 	46.025059 
-20.067983 	46.036254 	46.039440 	46.025062 
-20.067957 	46.036251 	46.039446 	46.025075 
-20.067942 	46.036253 	46.039448 	46.025079 
-20.067922 	46.036267 	46.039453 	46.025084 
-20.067892 	46.036278 	46.039457 	46.025090 
-20.067850 	46.036302 	46.039464 	46.025105 
-20.067819 	46.036308 	46.039474 	46.025111 
-20.067795 	46.036299 	46.039477 	46.025114 
-20.067773 	46.036287 	46.039480 	46.025117 
-20.067767 	46.036291 	46.039481 	46.025117 
-20.067756 	46.036264 	46.039484 	46.025116 
-20.067758 	46.036252 	46.039482 	46.025118 
-20.067770 	46.036261 	46.039488 	46.025124 
-20.067790 	46.036279 	46.039492 	46.025126 
-20.067815 	46.036286 	46.039497 	46.025130 
-20.067834 	46.036285 	46.039503 	46.025134 
-20.067837 	46.036298 	46.039507 	46.025140 
-20.067831 	46.036311 	46.039512 	46.025143 
-20.067813 	46.036321 	46.039514 	46.025150 
-20.067813 	46.036301 	46.039515 	46.025149 
-20.067817 	46.036282 	46.039515 	46.025149 
-20.067810 	46.036305 	46.039516 	46.025150 
-20.067791 	46.036321 	46.039522 	46.025152 
-20.067756 	46.036330 	46.039531 	46.025157 
-20.067713 	46.036352 	46.039532 	46.025158 
-20.067664 	46.036391 	46.039534 	46.025158 
-20.067637 	46.036415 	46.039531 	46.025154 
-20.067616 	46.036406 	46.039544 	46.025166 
-20.067623 	46.036411 	46.039555 	46.025173 
-20.067635 	46.036398 	46.039557 	46.025174 
-20.067652 	46.036392 	46.039555 	46.025175 
-30.052250 	44.029331 	44.040567 	44.026027 
-30.052231 	44.029327 	44.040567 	44.026027 
-30.052207 	44.029322 	44.040566 	44.026026 
-30.052176 	44.029327 	44.040566 	44.026027 
-30.052143 	44.029322 	44.040573 	44.026036 
-30.052114 	44.029333 	44.040583 	44.026046 
-30.052095 	44.029327 	44.040589 	44.026051 
-30.052078 	44.029334 	44.040594 	44.026056 
-30.052060 	44.029344 	44.040595 	44.026058 
-30.052031 	44.029356 	44.040609 	44.026071 
-30.052012 	44.029376 	44.040614 	44.026074 
-30.051985 	44.029383 	44.040622 	44.026083 
-30.051947 	44.029403 	44.040632 	44.026091 
-30.051905 	44.029405 	44.040644 	44.026101 
-30.051866 	44.029407 	44.040652 	44.026110 
-30.051818 	44.029412 	44.040672 	44.026131 
-30.051747 	44.029442 	44.040685 	44.026145 
-30.051685 	44.029463 	44.040696 	44.026156 
-30.051629 	44.029472 	44.040709 	44.026170 
-30.051595 	44.029476 	44.040721 	44.026180 
-30.051555 	44.029476 	44.040731 	44.026188 
-30.051528 	44.029507 	44.040737 	44.026193 
-30.051488 	44.029506 	44.040735 	44.026191 
-30.051458 	44.029500 	44.040741 	44.026198 
-30.051443 	44.029478 	44.040752 	44.026208 
-30.051430 	44.029478 	44.040763 	44.026215 
-30.051416 	44.029466 	44.040775 	44.026224 
-30.051408 	44.029481 	44.040780 	44.026226 
-30.051423 	44.029479 	44.040779 	44.026228 
-30.051436 	44.029454 	44.040780 	44.026229 
-30.051430 	44.029480 	44.040785 	44.026233 
-30.051403 	44.029507 	44.040792 	44.026239 
-30.051373 	44.029521 	44.040800 	44.026248 
-30.051338 	44.029526 	44.040810 	44.026260 
-30.051306 	44.029547 	44.040817 	44.026265 
-30.051283 	44.029526 	44.040820 	44.026270 
-30.051258 	44.029533 	44.040825 	44.026276 
-30.051242 	44.029529 	44.040828 	44.026279 
-30.051217 	44.029517 	44.040831 	44.026283 
-30.051187 	44.029527 	44.040834 	44.026285 
-30.051157 	44.029529 	44.040842 	44.026295 
-30.051115 	44.029533 	44.040848 	44.026302 
-30.051086 	44.029517 	44.040857 	44.026309 
-30.051058 	44.029515 	44.040866 	44.026319 
-30.051041 	44.029512 	44.040877 	44.026327 
-30.051033 	44.029503 	44.040878 	44.026327 
-30.051026 	44.029491 	44.040881 	44.026330 
-30.051035 	44.029505 	44.040878 	44.026330 
-30.051051 	44.029500 	44.040879 	44.026331 
-30.051065 	44.029500 	44.040876 	44.026331
-40.039818 	42.015197 	42.035016 	42.020383
-40.039779 	42.015174 	42.035017 	42.020385 
-40.039717 	42.015181 	42.035023 	42.020392 
-40.039618 	42.015212 	42.035034 	42.020404 
-40.039506 	42.015244 	42.035060 	42.020429 
-40.039369 	42.015290 	42.035083 	42.020452 
-40.039232 	42.015350 	42.035108 	42.020476 
-40.039103 	42.015383 	42.035128 	42.020494 
-40.038969 	42.015417 	42.035148 	42.020513 
-40.038865 	42.015460 	42.035167 	42.020531 
-40.038775 	42.015479 	42.035188 	42.020551 
-40.038671 	42.015497 	42.035209 	42.020574 
-40.038575 	42.015523 	42.035230 	42.020594 
-40.038492 	42.015535 	42.035247 	42.020612 
-40.038419 	42.015568 	42.035263 	42.020627 
-40.038336 	42.015577 	42.035274 	42.020637 
-40.038245 	42.015588 	42.035287 	42.020651 
-40.038156 	42.015600 	42.035295 	42.020660 
-40.038083 	42.015617 	42.035303 	42.020667 
-40.037976 	42.015637 	42.035313 	42.020678 
-40.037870 	42.015672 	42.035323 	42.020689 
-40.037773 	42.015723 	42.035329 	42.020693 
-40.037672 	42.015766 	42.035334 	42.020702 
-40.037576 	42.015794 	42.035345 	42.020714 
-40.037483 	42.015850 	42.035358 	42.020727 
-40.037386 	42.015886 	42.035371 	42.020740 
-40.037298 	42.015915 	42.035385 	42.020756 
-40.037203 	42.015942 	42.035399 	42.020767 
-40.037092 	42.015974 	42.035408 	42.020778 
-40.036967 	42.016011 	42.035417 	42.020789 
-40.036850 	42.016038 	42.035428 	42.020800 
-40.036731 	42.016090 	42.035444 	42.020814 
-40.036629 	42.016126 	42.035459 	42.020829 
-40.036552 	42.016151 	42.035475 	42.020845 
-40.036491 	42.016164 	42.035489 	42.020855 
-40.036461 	42.016164 	42.035492 	42.020861 
-40.036430 	42.016139 	42.035501 	42.020871 
-40.036410 	42.016147 	42.035510 	42.020883 
-40.036415 	42.016147 	42.035521 	42.020895 
-40.036428 	42.016142 	42.035533 	42.020908 
-40.036455 	42.016136 	42.035544 	42.020919 
-40.036493 	42.016139 	42.035549 	42.020925 
-40.036533 	42.016136 	42.035556 	42.020931 
-40.036548 	42.016136 	42.035564 	42.020938 
-40.036555 	42.016129 	42.035571 	42.020946 
-40.036569 	42.016134 	42.035583 	42.020958 
-40.036590 	42.016112 	42.035596 	42.020969 
-40.036588 	42.016089 	42.035602 	42.020973 
-40.036570 	42.016089 	42.035605 	42.020979 
-40.036565 	42.016102 	42.035612 	42.020987 
-50.030721 	39.994624 	40.021480 	40.006840 
-50.030665 	39.994631 	40.021499 	40.006857 
-50.030612 	39.994639 	40.021515 	40.006871 
-50.030560 	39.994646 	40.021529 	40.006885 
-50.030506 	39.994650 	40.021543 	40.006899 
-50.030448 	39.994656 	40.021559 	40.006914 
-50.030404 	39.994664 	40.021574 	40.006930 
-50.030353 	39.994671 	40.021590 	40.006945 
-50.030302 	39.994683 	40.021605 	40.006958 
-50.030257 	39.994693 	40.021619 	40.006971 
-50.030197 	39.994709 	40.021629 	40.006980 
-50.030129 	39.994724 	40.021639 	40.006991 
-50.030057 	39.994724 	40.021647 	40.007000 
-50.030025 	39.994719 	40.021654 	40.007008 
-50.030000 	39.994716 	40.021660 	40.007016 
-50.029979 	39.994708 	40.021665 	40.007022 
-50.029945 	39.994706 	40.021669 	40.007027 
-50.029925 	39.994701 	40.021673 	40.007031 
-50.029925 	39.994693 	40.021674 	40.007030 
-50.029936 	39.994695 	40.021670 	40.007025 
-50.029955 	39.994700 	40.021668 	40.007023 
-50.029976 	39.994715 	40.021666 	40.007020 
-50.029969 	39.994716 	40.021662 	40.007016 
-50.029967 	39.994719 	40.021657 	40.007009 
-50.029962 	39.994713 	40.021652 	40.007003 
-50.029938 	39.994707 	40.021647 	40.007000 
-50.029929 	39.994701 	40.021649 	40.007000 
-50.029915 	39.994692 	40.021647 	40.006997 
-50.029909 	39.994686 	40.021644 	40.006994 
-50.029904 	39.994689 	40.021639 	40.006989 
-50.029897 	39.994694 	40.021634 	40.006986 
-50.029893 	39.994715 	40.021631 	40.006984 
-50.029872 	39.994732 	40.021630 	40.006983 
-50.029849 	39.994742 	40.021630 	40.006982 
-50.029849 	39.994747 	40.021629 	40.006980 
-50.029857 	39.994753 	40.021629 	40.006980 
-50.029842 	39.994753 	40.021632 	40.006980 
-50.029830 	39.994757 	40.021634 	40.006979 
-50.029850 	39.994750 	40.021636 	40.006979 
-50.029869 	39.994752 	40.021636 	40.006979 
-50.029903 	39.994735 	40.021635 	40.006981 
-50.029948 	39.994712 	40.021635 	40.006979 
-50.029979 	39.994703 	40.021633 	40.006978 
-50.029977 	39.994707 	40.021633 	40.006976 
-50.029966 	39.994714 	40.021632 	40.006976 
-50.029957 	39.994723 	40.021631 	40.006975 
-50.029958 	39.994736 	40.021632 	40.006974 
-50.029944 	39.994753 	40.021635 	40.006975 
-50.029923 	39.994772 	40.021638 	40.006979 
-50.029888 	39.994775 	40.021643 	40.006985 
-60.017728 	37.967878 	38.002411 	37.987800 
-60.017636 	37.967903 	38.002435 	37.987823 
-60.017536 	37.967898 	38.002461 	37.987848 
-60.017465 	37.967851 	38.002485 	37.987873 
-60.017410 	37.967818 	38.002511 	37.987895 
-60.017359 	37.967793 	38.002532 	37.987916 
-60.017299 	37.967793 	38.002553 	37.987938 
-60.017227 	37.967789 	38.002574 	37.987958 
-60.017120 	37.967788 	38.002592 	37.987975 
-60.017024 	37.967805 	38.002608 	37.987994 
-60.016972 	37.967824 	38.002627 	37.988012 
-60.016952 	37.967841 	38.002641 	37.988028 
-60.016933 	37.967857 	38.002656 	37.988044 
-60.016929 	37.967871 	38.002665 	37.988054 
-60.016921 	37.967894 	38.002673 	37.988062 
-60.016913 	37.967899 	38.002680 	37.988069 
-60.016876 	37.967906 	38.002685 	37.988074 
-60.016829 	37.967901 	38.002689 	37.988077
-60.016772 	37.967894 	38.002689 	37.988075 
-60.016737 	37.967888 	38.002684 	37.988071 
-60.016722 	37.967884 	38.002677 	37.988065 
-60.016685 	37.967887 	38.002672 	37.988061 
-60.016651 	37.967893 	38.002675 	37.988065 
-60.016596 	37.967908 	38.002679 	37.988069 
-60.016565 	37.967920 	38.002682 	37.988071 
-60.016528 	37.967948 	38.002692 	37.988083 
-60.016467 	37.967976 	38.002731 	37.988108 
-60.016394 	37.967997 	38.002759 	37.988130 
-60.016320 	37.968023 	38.002781 	37.988150 
-60.016273 	37.968050 	38.002800 	37.988167 
-60.016258 	37.968077 	38.002812 	37.988179 
-60.016240 	37.968095 	38.002818 	37.988186 
-60.016236 	37.968143 	38.002820 	37.988188 
-60.016245 	37.968222 	38.002823 	37.988191 
-60.016246 	37.968284 	38.002824 	37.988193 
-60.016225 	37.968340 	38.002827 	37.988197 
-60.016123 	37.968391 	38.002831 	37.988200 
-60.016021 	37.968435 	38.002833 	37.988203 
-60.015974 	37.968477 	38.002837 	37.988209 
-60.015933 	37.968512 	38.002841 	37.988212 
-60.015860 	37.968541 	38.002842 	37.988212 
-60.015796 	37.968572 	38.002848 	37.988217 
-60.015750 	37.968600 	38.002855 	37.988223 
-60.015689 	37.968615 	38.002862 	37.988229 
-60.015610 	37.968631 	38.002872 	37.988240 
-60.015531 	37.968656 	38.002887 	37.988256 
-60.015449 	37.968682 	38.002905 	37.988274 
-60.015363 	37.968715 	38.002923 	37.988293 
-60.015315 	37.968747 	38.002945 	37.988315 
-60.015254 	37.968778 	38.002969 	37.988337 
