2/7/2013 8:21 AM
nDataPerSetPoint: 30
Calibrating RAF Probes
Reference(C), Heated A50738A(Ohm), Heated A50738B(Ohm), FastResp 3182(Ohm)
29.865077 	55.933823 	55.954846 	55.972369 
29.865737 	55.933885 	55.954904 	55.972434 
29.865977 	55.933934 	55.954950 	55.972491 
29.865977 	55.933978 	55.954993 	55.972533 
29.866168 	55.934006 	55.955022 	55.972554 
29.866318 	55.934037 	55.955055 	55.972589 
29.866599 	55.934060 	55.955080 	55.972601 
29.866599 	55.934068 	55.955089 	55.972621 
29.866663 	55.934076 	55.955096 	55.972637 
29.866708 	55.934086 	55.955103 	55.972640 
29.866706 	55.934092 	55.955108 	55.972670 
29.866751 	55.934090 	55.955105 	55.972681 
29.866819 	55.934089 	55.955103 	55.972686 
29.866880 	55.934099 	55.955116 	55.972678 
29.866982 	55.934112 	55.955136 	55.972671 
29.866982 	55.934139 	55.955158 	55.972689 
29.867078 	55.934164 	55.955188 	55.972708 
29.867346 	55.934199 	55.955222 	55.972730 
29.867346 	55.934227 	55.955246 	55.972759 
29.867484 	55.934250 	55.955263 	55.972787 
29.867702 	55.934268 	55.955280 	55.972806 
29.867702 	55.934286 	55.955293 	55.972824 
29.867906 	55.934301 	55.955312 	55.972842 
29.867906 	55.934320 	55.955328 	55.972858 
29.868065 	55.934339 	55.955347 	55.972869 
29.868065 	55.934356 	55.955359 	55.972883 
29.868117 	55.934364 	55.955366 	55.972876 
29.868095 	55.934359 	55.955359 	55.972872 
29.868052 	55.934355 	55.955351 	55.972853 
29.867981 	55.934346 	55.955345 	55.972844 
19.878877 	53.953122 	53.973416 	53.995928 
19.878864 	53.953128 	53.973422 	53.995927 
19.878864 	53.953126 	53.973416 	53.995899 
19.878740 	53.953118 	53.973406 	53.995890 
19.878622 	53.953094 	53.973380 	53.995875 
19.878467 	53.953065 	53.973349 	53.995846 
19.878326 	53.953026 	53.973315 	53.995803 
19.878157 	53.952989 	53.973280 	53.995793 
19.878023 	53.952953 	53.973246 	53.995758 
19.877888 	53.952925 	53.973220 	53.995710 
19.877765 	53.952900 	53.973189 	53.995699 
19.877765 	53.952880 	53.973179 	53.995672 
19.877483 	53.952860 	53.973162 	53.995629 
19.877406 	53.952845 	53.973148 	53.995630 
19.877298 	53.952832 	53.973128 	53.995600 
19.877204 	53.952811 	53.973110 	53.995583 
19.877204 	53.952793 	53.973093 	53.995563 
19.877110 	53.952775 	53.973081 	53.995571 
19.876919 	53.952767 	53.973072 	53.995546 
19.876787 	53.952758 	53.973063 	53.995545 
19.876678 	53.952746 	53.973050 	53.995548 
19.876678 	53.952731 	53.973033 	53.995507 
19.876460 	53.952713 	53.973015 	53.995469 
19.876352 	53.952689 	53.972991 	53.995459 
19.876224 	53.952667 	53.972974 	53.995450 
19.876107 	53.952651 	53.972954 	53.995453 
19.875980 	53.952628 	53.972936 	53.995447 
19.875923 	53.952608 	53.972918 	53.995413 
19.875878 	53.952600 	53.972914 	53.995365 
19.875839 	53.952593 	53.972905 	53.995373 
9.893103 	51.967393 	51.986941 	52.014051 
9.893347 	51.967425 	51.986973 	52.014098 
9.893347 	51.967456 	51.987005 	52.014155 
9.893535 	51.967483 	51.987035 	52.014184 
9.893714 	51.967512 	51.987067 	52.014222 
9.893967 	51.967543 	51.987098 	52.014244 
9.894037 	51.967566 	51.987121 	52.014280 
9.894127 	51.967587 	51.987140 	52.014293 
9.894254 	51.967605 	51.987154 	52.014324 
9.894369 	51.967616 	51.987163 	52.014352 
9.894369 	51.967634 	51.987181 	52.014360 
9.894534 	51.967649 	51.987198 	52.014381 
9.894636 	51.967667 	51.987212 	52.014412 
9.894636 	51.967687 	51.987230 	52.014416 
9.894723 	51.967703 	51.987244 	52.014424 
9.894857 	51.967712 	51.987251 	52.014457 
9.894857 	51.967722 	51.987262 	52.014460 
9.895032 	51.967732 	51.987274 	52.014473 
9.895032 	51.967743 	51.987283 	52.014475 
9.895080 	51.967749 	51.987286 	52.014494 
9.895080 	51.967753 	51.987292 	52.014498 
9.895121 	51.967760 	51.987301 	52.014509 
9.895145 	51.967767 	51.987306 	52.014526 
9.895144 	51.967773 	51.987310 	52.014503 
9.895136 	51.967778 	51.987318 	52.014513 
9.895180 	51.967784 	51.987322 	52.014510 
9.895231 	51.967794 	51.987334 	52.014497 
9.895345 	51.967810 	51.987348 	52.014517 
9.895424 	51.967826 	51.987366 	52.014520 
9.895424 	51.967840 	51.987378 	52.014542 
-0.095843 	49.975514 	49.994358 	50.025224 
-0.095730 	49.975531 	49.994375 	50.025221 
-0.095648 	49.975548 	49.994394 	50.025249 
-0.095574 	49.975564 	49.994411 	50.025247 
-0.095431 	49.975580 	49.994424 	50.025252 
-0.095431 	49.975594 	49.994437 	50.025267 
-0.095266 	49.975608 	49.994447 	50.025237 
-0.095266 	49.975627 	49.994465 	50.025244 
-0.095119 	49.975642 	49.994476 	50.025242 
-0.095060 	49.975649 	49.994484 	50.025256 
-0.095023 	49.975660 	49.994491 	50.025265 
-0.094970 	49.975669 	49.994502 	50.025236 
-0.094970 	49.975682 	49.994514 	50.025223 
-0.094747 	49.975698 	49.994532 	50.025237 
-0.094747 	49.975717 	49.994551 	50.025234 
-0.094553 	49.975735 	49.994565 	50.025254 
-0.094553 	49.975750 	49.994579 	50.025257 
-0.094507 	49.975760 	49.994588 	50.025246 
-0.094507 	49.975765 	49.994594 	50.025265 
-0.094476 	49.975774 	49.994606 	50.025286 
-0.094363 	49.975784 	49.994619 	50.025310 
-0.094300 	49.975799 	49.994634 	50.025338 
-0.094201 	49.975814 	49.994650 	50.025328 
-0.094201 	49.975831 	49.994665 	50.025323 
-0.094064 	49.975850 	49.994682 	50.025348 
-0.093989 	49.975866 	49.994698 	50.025356 
-0.093883 	49.975884 	49.994717 	50.025378 
-0.093883 	49.975898 	49.994732 	50.025387 
-0.093766 	49.975916 	49.994747 	50.025387 
-0.093680 	49.975931 	49.994760 	50.025411 
-10.081393 	47.978754 	47.996840 	48.030752 
-10.081393 	47.978771 	47.996861 	48.030784 
-10.081235 	47.978786 	47.996873 	48.030764 
-10.081010 	47.978803 	47.996893 	48.030799 
-10.080958 	47.978820 	47.996910 	48.030825 
-10.080904 	47.978840 	47.996931 	48.030860 
-10.080904 	47.978861 	47.996952 	48.030889 
-10.080768 	47.978883 	47.996972 	48.030914 
-10.080768 	47.978902 	47.996991 	48.030941 
-10.080689 	47.978917 	47.997008 	48.030965 
-10.080545 	47.978937 	47.997028 	48.031000 
-10.080545 	47.978959 	47.997048 	48.031028 
-10.080399 	47.978972 	47.997059 	48.031013 
-10.080325 	47.978981 	47.997068 	48.031009 
-10.080325 	47.978992 	47.997077 	48.030985 
-10.080213 	47.979001 	47.997085 	48.030997 
-10.080129 	47.979013 	47.997098 	48.031002 
-10.080090 	47.979024 	47.997107 	48.030983 
-10.080016 	47.979032 	47.997119 	48.031003 
-10.079927 	47.979042 	47.997131 	48.031019 
-10.079820 	47.979056 	47.997142 	48.031053 
-10.079782 	47.979064 	47.997152 	48.031061 
-10.079750 	47.979075 	47.997159 	48.031068 
-10.079750 	47.979082 	47.997166 	48.031043 
-10.079614 	47.979096 	47.997175 	48.031078 
-10.079565 	47.979109 	47.997188 	48.031093 
-10.079487 	47.979121 	47.997202 	48.031094 
-10.079395 	47.979132 	47.997213 	48.031108 
-10.079333 	47.979142 	47.997223 	48.031128 
-10.079274 	47.979155 	47.997235 	48.031145 
-20.070717 	45.975675 	45.992976 	46.029431 
-20.070622 	45.975696 	45.992995 	46.029435 
-20.070593 	45.975712 	45.993009 	46.029434 
-20.070593 	45.975725 	45.993020 	46.029445 
-20.070568 	45.975738 	45.993034 	46.029437 
-20.070518 	45.975750 	45.993045 	46.029426 
-20.070470 	45.975759 	45.993054 	46.029414 
-20.070406 	45.975769 	45.993064 	46.029409 
-20.070406 	45.975780 	45.993076 	46.029420 
-20.070387 	45.975792 	45.993086 	46.029441 
-20.070387 	45.975799 	45.993090 	46.029442 
-20.070389 	45.975799 	45.993090 	46.029452 
-20.070389 	45.975802 	45.993090 	46.029451 
-20.070478 	45.975801 	45.993088 	46.029452 
-20.070490 	45.975799 	45.993086 	46.029469 
-20.070490 	45.975801 	45.993091 	46.029478 
-20.070478 	45.975803 	45.993092 	46.029480 
-20.070460 	45.975808 	45.993099 	46.029490 
-20.070496 	45.975818 	45.993105 	46.029504 
-20.070513 	45.975817 	45.993105 	46.029490 
-20.070517 	45.975818 	45.993105 	46.029520 
-20.070538 	45.975820 	45.993109 	46.029535 
-20.070538 	45.975827 	45.993114 	46.029542 
-20.070421 	45.975834 	45.993122 	46.029543 
-20.070357 	45.975846 	45.993136 	46.029560 
-20.070265 	45.975864 	45.993153 	46.029591 
-20.070155 	45.975880 	45.993167 	46.029579 
-20.070081 	45.975890 	45.993176 	46.029553 
-20.070081 	45.975899 	45.993181 	46.029554 
-20.070079 	45.975902 	45.993180 	46.029552 
-30.051202 	43.968774 	43.985250 	44.023768 
-30.050995 	43.968810 	43.985283 	44.023792 
-30.050835 	43.968840 	43.985312 	44.023795 
-30.050670 	43.968867 	43.985338 	44.023799 
-30.050670 	43.968895 	43.985365 	44.023796 
-30.050323 	43.968923 	43.985393 	44.023827 
-30.050323 	43.968954 	43.985426 	44.023857 
-30.050166 	43.968987 	43.985461 	44.023921 
-30.049885 	43.969015 	43.985487 	44.023944 
-30.049885 	43.969042 	43.985516 	44.023952 
-30.049609 	43.969069 	43.985540 	44.023969 
-30.049609 	43.969093 	43.985564 	44.023989 
-30.049468 	43.969116 	43.985587 	44.024014 
-30.049340 	43.969137 	43.985605 	44.024024 
-30.049251 	43.969157 	43.985625 	44.024049 
-30.049058 	43.969174 	43.985643 	44.024031 
-30.048957 	43.969197 	43.985666 	44.024101 
-30.048957 	43.969211 	43.985676 	44.024115 
-30.048871 	43.969228 	43.985692 	44.024124 
-30.048760 	43.969241 	43.985705 	44.024094 
-30.048670 	43.969249 	43.985712 	44.024079 
-30.048631 	43.969254 	43.985716 	44.024040 
-30.048622 	43.969257 	43.985715 	44.024048 
-30.048622 	43.969251 	43.985709 	44.024035 
-30.048619 	43.969250 	43.985709 	44.024026 
-30.048622 	43.969248 	43.985709 	44.024022 
-30.048656 	43.969247 	43.985712 	44.024042 
-30.048718 	43.969251 	43.985717 	44.024065 
-30.048718 	43.969255 	43.985721 	44.024085 
-30.048718 	43.969261 	43.985727 	44.024061 
-40.038316 	41.954890 	41.970542 	42.010987 
-40.038194 	41.954911 	41.970561 	42.010997 
-40.038082 	41.954932 	41.970581 	42.010999 
-40.038082 	41.954951 	41.970600 	42.011010 
-40.037883 	41.954969 	41.970618 	42.011029 
-40.037769 	41.954988 	41.970635 	42.011050 
-40.037645 	41.955009 	41.970657 	42.011073 
-40.037508 	41.955030 	41.970677 	42.011085 
-40.037508 	41.955047 	41.970695 	42.011097 
-40.037307 	41.955067 	41.970716 	42.011111 
-40.037307 	41.955085 	41.970731 	42.011159 
-40.037162 	41.955093 	41.970739 	42.011153 
-40.037111 	41.955105 	41.970749 	42.011163 
-40.037082 	41.955115 	41.970758 	42.011185 
-40.037063 	41.955122 	41.970767 	42.011170 
-40.037018 	41.955126 	41.970772 	42.011199 
-40.036976 	41.955135 	41.970782 	42.011217 
-40.036907 	41.955146 	41.970793 	42.011238 
-40.036907 	41.955160 	41.970806 	42.011274 
-40.036772 	41.955173 	41.970822 	42.011274 
-40.036772 	41.955190 	41.970843 	42.011275 
-40.036723 	41.955206 	41.970856 	42.011307 
-40.036563 	41.955219 	41.970866 	42.011335 
-40.036498 	41.955226 	41.970871 	42.011291 
-40.036485 	41.955231 	41.970875 	42.011278 
-40.036517 	41.955230 	41.970873 	42.011288 
-40.036557 	41.955224 	41.970867 	42.011303 
-40.036568 	41.955217 	41.970860 	42.011296 
-40.036568 	41.955211 	41.970858 	42.011289 
-40.036568 	41.955213 	41.970862 	42.011299 
-50.033047 	39.933533 	39.948343 	39.990868 
-50.032885 	39.933569 	39.948374 	39.990907 
-50.032821 	39.933588 	39.948390 	39.990941 
-50.032785 	39.933600 	39.948396 	39.990979 
-50.032805 	39.933601 	39.948400 	39.991024 
-50.032805 	39.933606 	39.948403 	39.991037 
-50.032812 	39.933605 	39.948402 	39.991020 
-50.032851 	39.933604 	39.948401 	39.991011 
-50.032821 	39.933605 	39.948402 	39.990990 
-50.032747 	39.933608 	39.948408 	39.990985 
-50.032648 	39.933617 	39.948418 	39.991000 
-50.032501 	39.933637 	39.948449 	39.991015 
-50.032314 	39.933669 	39.948482 	39.991046 
-50.032071 	39.933704 	39.948519 	39.991137 
-50.031840 	39.933745 	39.948561 	39.991179 
-50.031636 	39.933782 	39.948598 	39.991239 
-50.031478 	39.933821 	39.948633 	39.991295 
-50.031478 	39.933851 	39.948663 	39.991332 
-50.031353 	39.933882 	39.948692 	39.991382 
-50.031353 	39.933900 	39.948709 	39.991424 
-50.031378 	39.933907 	39.948716 	39.991452 
-50.031414 	39.933906 	39.948712 	39.991460 
-50.031452 	39.933897 	39.948700 	39.991469 
-50.031486 	39.933886 	39.948688 	39.991482 
-50.031485 	39.933884 	39.948688 	39.991491 
-50.031465 	39.933886 	39.948691 	39.991504 
-50.031445 	39.933895 	39.948698 	39.991534 
-50.031394 	39.933895 	39.948699 	39.991551 
-50.031371 	39.933897 	39.948702 	39.991572 
-50.031365 	39.933903 	39.948709 	39.991600 
-60.019852 	37.908042 	37.922039 	37.962871 
-60.019825 	37.908070 	37.922067 	37.962828 
-60.019825 	37.908096 	37.922091 	37.962856 
-60.019743 	37.908133 	37.922129 	37.962873 
-60.019659 	37.908144 	37.922138 	37.962870 
-60.019659 	37.908152 	37.922145 	37.962858 
-60.019617 	37.908154 	37.922146 	37.962868 
-60.019445 	37.908153 	37.922144 	37.962899 
-60.019445 	37.908153 	37.922146 	37.962943 
-60.019334 	37.908156 	37.922151 	37.962948 
-60.019231 	37.908164 	37.922158 	37.962982 
-60.018986 	37.908175 	37.922171 	37.962956 
-60.018986 	37.908193 	37.922188 	37.962915 
-60.018850 	37.908207 	37.922203 	37.963010 
-60.018680 	37.908222 	37.922218 	37.963084 
-60.018510 	37.908236 	37.922234 	37.963043 
-60.018510 	37.908255 	37.922252 	37.963056 
-60.018420 	37.908275 	37.922273 	37.963050 
-60.018299 	37.908294 	37.922291 	37.963026 
-60.018111 	37.908312 	37.922311 	37.963056 
-60.017868 	37.908327 	37.922324 	37.963116 
-60.017868 	37.908342 	37.922341 	37.963085 
-60.017822 	37.908357 	37.922356 	37.963063 
-60.017849 	37.908371 	37.922367 	37.963060 
-60.017882 	37.908381 	37.922377 	37.963082 
-60.017882 	37.908384 	37.922379 	37.963070 
-60.018004 	37.908381 	37.922376 	37.963089 
-60.018004 	37.908366 	37.922363 	37.963117 
-60.018016 	37.908355 	37.922354 	37.963083 
-60.018005 	37.908353 	37.922354 	37.963127 
