8/27/2014 7:09 AM
nsamplesPerSetPoint: 50
RAF probes 2984, 312453, 40c to -60C, 10deg steps, 50 samples
Reference(C), 2984(Ohm), 812453A(Ohm), 812453B(Ohm)
39.871795 	58.533112 	57.903980 	57.883399
39.871724 	58.533106 	57.903966 	57.883385
39.871669 	58.533107 	57.903953 	57.883374 
39.871634 	58.533099 	57.903947 	57.883369 
39.871620 	58.533116 	57.903942 	57.883364 
39.871633 	58.533139 	57.903940 	57.883368 
39.871679 	58.533181 	57.903950 	57.883378 
39.871758 	58.533208 	57.903963 	57.883390
39.871843 	58.533246 	57.903984 	57.883413 
39.871954 	58.533277 	57.904011 	57.883442 
39.872062 	58.533306 	57.904043 	57.883471 
39.872132 	58.533314 	57.904059 	57.883483 
39.872151 	58.533318 	57.904067 	57.883484 
39.872087 	58.533310 	57.904061 	57.883472 
39.871944 	58.533271 	57.904037 	57.883444 
39.871733 	58.533221 	57.903991 	57.883398 
39.871461 	58.533164 	57.903938 	57.883347 
39.871165 	58.533089 	57.903878 	57.883284 
39.870859 	58.533030 	57.903817 	57.883223
39.870550 	58.532982 	57.903755 	57.883160 
39.870245 	58.532931 	57.903697 	57.883102 
39.869937 	58.532845 	57.903642 	57.883046 
39.869653 	58.532779 	57.903586 	57.882991 
39.869380 	58.532695 	57.903525 	57.882935 
39.869094 	58.532640 	57.903473 	57.882882 
39.868799 	58.532559 	57.903411 	57.882822 
39.868528 	58.532511 	57.903355 	57.882767 
39.868266 	58.532461 	57.903305 	57.882717 
39.867997 	58.532419 	57.903259 	57.882672 
39.867750 	58.532371 	57.903211 	57.882623 
39.867543 	58.532338 	57.903171 	57.882586 
39.867359 	58.532323 	57.903131 	57.882553 
39.867187 	58.532307 	57.903099 	57.882517 
39.866990 	58.532289 	57.903063 	57.882478 
39.866774 	58.532240 	57.903025 	57.882440 
39.866556 	58.532211 	57.902994 	57.882404 
39.866324 	58.532159 	57.902947 	57.882360 
39.866080 	58.532112 	57.902901 	57.882315 
39.865855 	58.532065 	57.902854 	57.882270 
39.865634 	58.532040 	57.902805 	57.882222 
39.865399 	58.532006 	57.902747 	57.882166 
39.865176 	58.531987 	57.902695 	57.882115 
39.864965 	58.531946 	57.902647 	57.882071 
39.864781 	58.531895 	57.902606 	57.882034 
39.864643 	58.531868 	57.902574 	57.882002
39.864535 	58.531860 	57.902558 	57.881988 
39.864453 	58.531819 	57.902545 	57.881977 
39.864400 	58.531796 	57.902538 	57.881974 
39.864375 	58.531767 	57.902544 	57.881983 
39.864381 	58.531751 	57.902551 	57.881997 
29.871188 	56.540799 	55.937123 	55.918409 
29.871241 	56.540809 	55.937128 	55.918414 
29.871300 	56.540822 	55.937136 	55.918423 
29.871354 	56.540838 	55.937152 	55.918438 
29.871395 	56.540853 	55.937162 	55.918445 
29.871425 	56.540871 	55.937177 	55.918457 
29.871464 	56.540882 	55.937183 	55.918466 
29.871500 	56.540884 	55.937187 	55.918466 
29.871517 	56.540902 	55.937185 	55.918465 
29.871531 	56.540899 	55.937188 	55.918465 
29.871543 	56.540880 	55.937186 	55.918463 
29.871574 	56.540890 	55.937186 	55.918461 
29.871594 	56.540907 	55.937187 	55.918459 
29.871622 	56.540915 	55.937201 	55.918475 
29.871637 	56.540903 	55.937207 	55.918480 
29.871659 	56.540892 	55.937221 	55.918493 
29.871704 	56.540892 	55.937237 	55.918510 
29.871740 	56.540908 	55.937242 	55.918513 
29.871779 	56.540919 	55.937249 	55.918517 
29.871822 	56.540945 	55.937258 	55.918518 
29.871856 	56.540975 	55.937265 	55.918521 
29.871887 	56.541006 	55.937268 	55.918527 
29.871909 	56.540973 	55.937272 	55.918529 
29.871920 	56.540966 	55.937276 	55.918534 
29.871933 	56.540961 	55.937275 	55.918529 
29.871938 	56.540956 	55.937271 	55.918526 
29.871929 	56.540951 	55.937257 	55.918518 
29.871931 	56.540951 	55.937257 	55.918516 
29.871930 	56.540931 	55.937256 	55.918511 
29.871935 	56.540934 	55.937255 	55.918509 
29.871957 	56.540936 	55.937255 	55.918508 
29.871984 	56.540926 	55.937268 	55.918524 
29.872014 	56.540921 	55.937274 	55.918530 
29.872037 	56.540915 	55.937279 	55.918537 
29.872036 	56.540899 	55.937277 	55.918535 
29.872038 	56.540904 	55.937275 	55.918532 
29.872023 	56.540891 	55.937271 	55.918526 
29.872011 	56.540904 	55.937270 	55.918527 
29.872022 	56.540894 	55.937270 	55.918532 
29.872045 	56.540899 	55.937272 	55.918534 
29.872062 	56.540914 	55.937281 	55.918538 
29.872076 	56.540896 	55.937288 	55.918550 
29.872080 	56.540891 	55.937297 	55.918560 
29.872080 	56.540883 	55.937297 	55.918559 
29.872085 	56.540874 	55.937298 	55.918561 
29.872082 	56.540874 	55.937291 	55.918554 
29.872053 	56.540873 	55.937276 	55.918535 
29.872013 	56.540879 	55.937271 	55.918531 
29.871966 	56.540877 	55.937266 	55.918525 
29.871920 	56.540868 	55.937266 	55.918525 
19.881492 	54.546762 	53.966378 	53.949457 
19.881540 	54.546783 	53.966383 	53.949463 
19.881574 	54.546764 	53.966390 	53.949468 
19.881616 	54.546767 	53.966401 	53.949480 
19.881660 	54.546762 	53.966406 	53.949487 
19.881706 	54.546776 	53.966410 	53.949490 
19.881747 	54.546796 	53.966413 	53.949498 
19.881793 	54.546808 	53.966422 	53.949507 
19.881827 	54.546837 	53.966430 	53.949514 
19.881849 	54.546835 	53.966437 	53.949520 
19.881870 	54.546830 	53.966441 	53.949531 
19.881913 	54.546837 	53.966453 	53.949541 
19.881966 	54.546858 	53.966465 	53.949545 
19.882015 	54.546871 	53.966470 	53.949552 
19.882064 	54.546875 	53.966475 	53.949554 
19.882095 	54.546879 	53.966481 	53.949552 
19.882110 	54.546907 	53.966477 	53.949542 
19.882126 	54.546919 	53.966471 	53.949534 
19.882140 	54.546931 	53.966462 	53.949522 
19.882121 	54.546922 	53.966455 	53.949512 
19.882089 	54.546903 	53.966438 	53.949501 
19.882058 	54.546888 	53.966435 	53.949498 
19.882033 	54.546873 	53.966431 	53.949499 
19.882022 	54.546870 	53.966436 	53.949503 
19.882034 	54.546864 	53.966442 	53.949508 
19.882045 	54.546881 	53.966448 	53.949514 
19.882063 	54.546901 	53.966449 	53.949512 
19.882063 	54.546889 	53.966454 	53.949518 
19.882054 	54.546879 	53.966450 	53.949514
19.882056 	54.546903 	53.966450 	53.949516 
19.882061 	54.546931 	53.966448 	53.949519 
19.882067 	54.546920 	53.966452 	53.949522 
19.882057 	54.546927 	53.966458 	53.949524 
19.882044 	54.546919 	53.966450 	53.949518 
19.882032 	54.546919 	53.966451 	53.949520 
19.882028 	54.546914 	53.966449 	53.949521 
19.882056 	54.546924 	53.966460 	53.949531 
19.882097 	54.546958 	53.966471 	53.949541 
19.882134 	54.546971 	53.966479 	53.949553 
19.882177 	54.546994 	53.966488 	53.949559 
19.882216 	54.547014 	53.966498 	53.949566 
19.882232 	54.547020 	53.966500 	53.949570 
19.882236 	54.547022 	53.966500 	53.949571 
19.882234 	54.547021 	53.966500 	53.949571 
19.882200 	54.547027 	53.966497 	53.949565 
19.882185 	54.547025 	53.966494 	53.949569 
19.882213 	54.547043 	53.966501 	53.949580 
19.882268 	54.547069 	53.966515 	53.949594 
19.882338 	54.547104 	53.966532 	53.949616 
19.882422 	54.547128 	53.966547 	53.949631 
9.900320 	52.549247 	51.991336 	51.976124 
9.900265 	52.549223 	51.991327 	51.976116 
9.900264 	52.549212 	51.991327 	51.976121 
9.900282 	52.549210 	51.991333 	51.976130 
9.900294 	52.549216 	51.991335 	51.976131 
9.900254 	52.549199 	51.991332 	51.976119 
9.900180 	52.549187 	51.991314 	51.976096
9.900025 	52.549161 	51.991274 	51.976042 
9.899825 	52.549124 	51.991224 	51.975991 
9.899588 	52.549062 	51.991165 	51.975932 
9.899340 	52.549021 	51.991109 	51.975879 
9.899099 	52.548982 	51.991060 	51.975829 
9.898842 	52.548904 	51.991001 	51.975767 
9.898592 	52.548838 	51.990944 	51.975716 
9.898348 	52.548796 	51.990901 	51.975673 
9.898113 	52.548752 	51.990850 	51.975624 
9.897895 	52.548694 	51.990796 	51.975570 
9.897673 	52.548652 	51.990749 	51.975524 
9.897480 	52.548614 	51.990708 	51.975482 
9.897308 	52.548574 	51.990667 	51.975440 
9.897144 	52.548540 	51.990640 	51.975411 
9.897000 	52.548499 	51.990614 	51.975393 
9.896897 	52.548475 	51.990596 	51.975374 
9.896813 	52.548487 	51.990588 	51.975364 
9.896747 	52.548480 	51.990577 	51.975355 
9.896687 	52.548457 	51.990563 	51.975342 
9.896643 	52.548433 	51.990549 	51.975332 
9.896679 	52.548465 	51.990551 	51.975338 
9.896785 	52.548516 	51.990570 	51.975359 
9.896924 	52.548550 	51.990608 	51.975397 
9.897064 	52.548596 	51.990642 	51.975428 
9.897184 	52.548623 	51.990668 	51.975456 
9.897258 	52.548641 	51.990680 	51.975465 
9.897324 	52.548646 	51.990692 	51.975477 
9.897365 	52.548658 	51.990709 	51.975491 
9.897399 	52.548652 	51.990724 	51.975506 
9.897413 	52.548637 	51.990732 	51.975512 
9.897447 	52.548644 	51.990743 	51.975522 
9.897498 	52.548649 	51.990761 	51.975539 
9.897531 	52.548652 	51.990775 	51.975551 
9.897539 	52.548628 	51.990777 	51.975552 
9.897504 	52.548610 	51.990763 	51.975538 
9.897453 	52.548628 	51.990754 	51.975534 
9.897379 	52.548625 	51.990740 	51.975520 
9.897281 	52.548577 	51.990720 	51.975504 
9.897183 	52.548528 	51.990708 	51.975493 
9.897098 	52.548513 	51.990701 	51.975486 
9.897050 	52.548507 	51.990699 	51.975488 
9.897034 	52.548506 	51.990705 	51.975491 
9.897046 	52.548490 	51.990708 	51.975499 
-0.093425 	50.543424 	50.007523 	49.994021 
-0.093318 	50.543463 	50.007555 	49.994041 
-0.093199 	50.543489 	50.007570 	49.994061 
-0.093080 	50.543520 	50.007597 	49.994095 
-0.092922 	50.543559 	50.007635 	49.994132 
-0.092775 	50.543599 	50.007672 	49.994165 
-0.092625 	50.543630 	50.007710 	49.994207 
-0.092447 	50.543649 	50.007754 	49.994249 
-0.092276 	50.543681 	50.007800 	49.994296 
-0.092179 	50.543700 	50.007825 	49.994317 
-0.092164 	50.543697 	50.007830 	49.994320 
-0.092206 	50.543677 	50.007807 	49.994302 
-0.092317 	50.543646 	50.007777 	49.994266 
-0.092474 	50.543605 	50.007734 	49.994221 
-0.092686 	50.543563 	50.007691 	49.994176 
-0.092898 	50.543507 	50.007645 	49.994130 
-0.093100 	50.543469 	50.007603 	49.994085 
-0.093259 	50.543430 	50.007572 	49.994059 
-0.093393 	50.543408 	50.007548 	49.994037 
-0.093447 	50.543397 	50.007547 	49.994037 
-0.093465 	50.543396 	50.007540 	49.994034 
-0.093415 	50.543413 	50.007558 	49.994055 
-0.093317 	50.543441 	50.007584 	49.994076 
-0.093157 	50.543468 	50.007616 	49.994108 
-0.092878 	50.543518 	50.007686 	49.994177 
-0.092510 	50.543601 	50.007771 	49.994257 
-0.092086 	50.543687 	50.007852 	49.994336 
-0.091636 	50.543776 	50.007944 	49.994430 
-0.091208 	50.543870 	50.008041 	49.994520 
-0.090834 	50.543940 	50.008114 	49.994587 
-0.090491 	50.544000 	50.008178 	49.994650 
-0.090209 	50.544048 	50.008230 	49.994709 
-0.089930 	50.544103 	50.008291 	49.994766 
-0.089684 	50.544156 	50.008340 	49.994807 
-0.089481 	50.544198 	50.008374 	49.994845 
-0.089283 	50.544230 	50.008408 	49.994879 
-0.089104 	50.544267 	50.008435 	49.994901 
-0.088965 	50.544314 	50.008458 	49.994922 
-0.088840 	50.544359 	50.008476 	49.994943 
-0.088714 	50.544387 	50.008500 	49.994966 
-0.088569 	50.544412 	50.008526 	49.994989 
-0.088421 	50.544428 	50.008550 	49.995005 
-0.088259 	50.544466 	50.008578 	49.995033 
-0.088107 	50.544507 	50.008608 	49.995062 
-0.087944 	50.544543 	50.008636 	49.995084 
-0.087806 	50.544574 	50.008653 	49.995101 
-0.087722 	50.544592 	50.008663 	49.995109 
-0.087735 	50.544586 	50.008649 	49.995091 
-0.087803 	50.544572 	50.008634 	49.995071 
-0.087923 	50.544548 	50.008602 	49.995037 
-10.080112 	48.532685 	48.019055 	48.007218 
-10.079799 	48.532757 	48.019120 	48.007283 
-10.079447 	48.532827 	48.019191 	48.007357 
-10.079105 	48.532903 	48.019268 	48.007430 
-10.078801 	48.532942 	48.019330 	48.007488 
-10.078526 	48.532975 	48.019380 	48.007530 
-10.078311 	48.532990 	48.019421 	48.007568 
-10.078104 	48.533028 	48.019453 	48.007602 
-10.077907 	48.533060 	48.019491 	48.007634 
-10.077753 	48.533088 	48.019514 	48.007651 
-10.077639 	48.533091 	48.019529 	48.007666 
-10.077559 	48.533111 	48.019534 	48.007668 
-10.077538 	48.533119 	48.019540 	48.007668 
-10.077570 	48.533096 	48.019533 	48.007656 
-10.077624 	48.533086 	48.019518 	48.007638 
-10.077669 	48.533063 	48.019503 	48.007626 
-10.077701 	48.533057 	48.019493 	48.007614 
-10.077729 	48.533066 	48.019485 	48.007607 
-10.077735 	48.533068 	48.019480 	48.007606 
-10.077722 	48.533093 	48.019483 	48.007606 
-10.077693 	48.533095 	48.019477 	48.007606 
-10.077645 	48.533104 	48.019489 	48.007627 
-10.077602 	48.533122 	48.019499 	48.007629 
-10.077562 	48.533127 	48.019501 	48.007630 
-10.077500 	48.533140 	48.019509 	48.007639 
-10.077440 	48.533151 	48.019510 	48.007637 
-10.077414 	48.533178 	48.019508 	48.007625 
-10.077426 	48.533185 	48.019499 	48.007618 
-10.077491 	48.533165 	48.019481 	48.007593 
-10.077604 	48.533147 	48.019445 	48.007554 
-10.077760 	48.533122 	48.019414 	48.007523 
-10.077997 	48.533071 	48.019361 	48.007463 
-10.078274 	48.533012 	48.019290 	48.007392 
-10.078561 	48.532948 	48.019217 	48.007322 
-10.078812 	48.532907 	48.019156 	48.007261 
-10.079027 	48.532869 	48.019114 	48.007224 
-10.079175 	48.532848 	48.019083 	48.007200 
-10.079273 	48.532826 	48.019061 	48.007178 
-10.079336 	48.532818 	48.019042 	48.007163 
-10.079344 	48.532822 	48.019045 	48.007175 
-10.079263 	48.532860 	48.019067 	48.007201 
-10.079110 	48.532914 	48.019104 	48.007241 
-10.078879 	48.532966 	48.019149 	48.007292 
-10.078601 	48.533027 	48.019210 	48.007353 
-10.078288 	48.533079 	48.019267 	48.007411 
-10.077957 	48.533152 	48.019332 	48.007477 
-10.077633 	48.533214 	48.019397 	48.007545 
-10.077296 	48.533275 	48.019467 	48.007617 
-10.076982 	48.533338 	48.019535 	48.007681 
-10.076720 	48.533380 	48.019586 	48.007731 
-20.070738 	46.514813 	46.023331 	46.013182 
-20.070592 	46.514861 	46.023366 	46.013219 
-20.070435 	46.514891 	46.023399 	46.013255 
-20.070278 	46.514917 	46.023435 	46.013288 
-20.070086 	46.514969 	46.023475 	46.013324 
-20.069880 	46.515009 	46.023516 	46.013359 
-20.069712 	46.515016 	46.023553 	46.013396 
-20.069513 	46.515036 	46.023595 	46.013439 
-20.069300 	46.515080 	46.023643 	46.013489 
-20.069082 	46.515122 	46.023691 	46.013540 
-20.068861 	46.515179 	46.023753 	46.013599 
-20.068663 	46.515226 	46.023802 	46.013650 
-20.068494 	46.515256 	46.023846 	46.013692 
-20.068351 	46.515287 	46.023887 	46.013733 
-20.068257 	46.515315 	46.023909 	46.013756 
-20.068154 	46.515345 	46.023930 	46.013778 
-20.068077 	46.515362 	46.023947 	46.013792 
-20.068019 	46.515353 	46.023957 	46.013805 
-20.067959 	46.515367 	46.023975 	46.013823 
-20.067861 	46.515387 	46.023985 	46.013831 
-20.067756 	46.515405 	46.024008 	46.013857 
-20.067643 	46.515415 	46.024027 	46.013878 
-20.067539 	46.515431 	46.024057 	46.013895 
-20.067452 	46.515419 	46.024063 	46.013897 
-20.067379 	46.515419 	46.024077 	46.013911 
-20.067316 	46.515409 	46.024087 	46.013920 
-20.067257 	46.515419 	46.024101 	46.013936 
-20.067217 	46.515415 	46.024110 	46.013940 
-20.067188 	46.515407 	46.024117 	46.013942 
-20.067170 	46.515407 	46.024116 	46.013942 
-20.067175 	46.515416 	46.024118 	46.013947 
-20.067198 	46.515423 	46.024116 	46.013940 
-20.067234 	46.515431 	46.024100 	46.013925 
-20.067285 	46.515421 	46.024089 	46.013910 
-20.067388 	46.515416 	46.024061 	46.013888 
-20.067545 	46.515393 	46.024032 	46.013861 
-20.067701 	46.515377 	46.024006 	46.013835 
-20.067885 	46.515351 	46.023972 	46.013803 
-20.068055 	46.515320 	46.023939 	46.013773 
-20.068216 	46.515284 	46.023896 	46.013731 
-20.068335 	46.515260 	46.023863 	46.013697 
-20.068438 	46.515235 	46.023839 	46.013670 
-20.068519 	46.515211 	46.023817 	46.013648 
-20.068588 	46.515215 	46.023796 	46.013625 
-20.068633 	46.515185 	46.023784 	46.013612 
-20.068657 	46.515172 	46.023777 	46.013606 
-20.068657 	46.515152 	46.023780 	46.013613 
-20.068625 	46.515152 	46.023792 	46.013621 
-20.068591 	46.515177 	46.023801 	46.013628 
-20.068544 	46.515184 	46.023812 	46.013640 
-30.054088 	44.492252 	44.023216 	44.014691 
-30.054057 	44.492252 	44.023213 	44.014691 
-30.054023 	44.492259 	44.023216 	44.014696 
-30.053955 	44.492269 	44.023223 	44.014706
-30.053860 	44.492283 	44.023240 	44.014725 
-30.053751 	44.492300 	44.023257 	44.014744 
-30.053601 	44.492316 	44.023281 	44.014766 
-30.053409 	44.492349 	44.023298 	44.014780 
-30.053199 	44.492388 	44.023325 	44.014809 
-30.052980 	44.492430 	44.023361 	44.014843 
-30.052762 	44.492458 	44.023396 	44.014877 
-30.052575 	44.492496 	44.023435 	44.014914 
-30.052403 	44.492524 	44.023472 	44.014952 
-30.052245 	44.492570 	44.023505 	44.014982 
-30.052113 	44.492601 	44.023534 	44.015007 
-30.051979 	44.492632 	44.023556 	44.015028 
-30.051872 	44.492660 	44.023583 	44.015052 
-30.051780 	44.492690 	44.023596 	44.015068 
-30.051705 	44.492710 	44.023612 	44.015084 
-30.051665 	44.492724 	44.023628 	44.015097 
-30.051637 	44.492733 	44.023639 	44.015107 
-30.051639 	44.492749 	44.023650 	44.015119 
-30.051678 	44.492751 	44.023653 	44.015119 
-30.051740 	44.492750 	44.023650 	44.015117 
-30.051810 	44.492728 	44.023644 	44.015114 
-30.051881 	44.492709 	44.023638 	44.015108 
-30.051977 	44.492677 	44.023629 	44.015099 
-30.052053 	44.492648 	44.023615 	44.015082 
-30.052105 	44.492626 	44.023601 	44.015069 
-30.052130 	44.492620 	44.023591 	44.015063 
-30.052135 	44.492626 	44.023582 	44.015056 
-30.052161 	44.492644 	44.023575 	44.015050 
-30.052185 	44.492634 	44.023566 	44.015041 
-30.052203 	44.492625 	44.023560 	44.015035 
-30.052222 	44.492614 	44.023553 	44.015029 
-30.052255 	44.492611 	44.023546 	44.015022 
-30.052317 	44.492597 	44.023534 	44.015012 
-30.052415 	44.492565 	44.023520 	44.015001 
-30.052511 	44.492531 	44.023507 	44.014987 
-30.052617 	44.492522 	44.023489 	44.014969 
-30.052719 	44.492516 	44.023471 	44.014952 
-30.052782 	44.492505 	44.023451 	44.014933 
-30.052797 	44.492501 	44.023434 	44.014919 
-30.052781 	44.492496 	44.023434 	44.014924 
-30.052690 	44.492522 	44.023449 	44.014941 
-30.052554 	44.492554 	44.023470 	44.014965 
-30.052353 	44.492590 	44.023497 	44.014998 
-30.052114 	44.492636 	44.023541 	44.015041 
-30.051847 	44.492685 	44.023588 	44.015089 
-30.051569 	44.492749 	44.023639 	44.015144 
-40.038693 	42.462915 	42.017042 	42.010201 
-40.038674 	42.462923 	42.017053 	42.010212 
-40.038656 	42.462922 	42.017060 	42.010211 
-40.038627 	42.462932 	42.017061 	42.010212 
-40.038592 	42.462951 	42.017065 	42.010215 
-40.038549 	42.462977 	42.017072 	42.010223 
-40.038505 	42.463013 	42.017079 	42.010228 
-40.038459 	42.463049 	42.017086 	42.010233 
-40.038412 	42.463070 	42.017085 	42.010227 
-40.038371 	42.463083 	42.017086 	42.010228 
-40.038369 	42.463095 	42.017094 	42.010237 
-40.038365 	42.463111 	42.017102 	42.010246 
-40.038380 	42.463127 	42.017112 	42.010260 
-40.038400 	42.463135 	42.017124 	42.010271 
-40.038439 	42.463144 	42.017134 	42.010280 
-40.038478 	42.463146 	42.017133 	42.010278 
-40.038518 	42.463146 	42.017130 	42.010271 
-40.038544 	42.463141 	42.017125 	42.010264 
-40.038553 	42.463133 	42.017124 	42.010262 
-40.038541 	42.463138 	42.017124 	42.010258 
-40.038537 	42.463141 	42.017121 	42.010254 
-40.038546 	42.463146 	42.017116 	42.010249 
-40.038561 	42.463152 	42.017112 	42.010244 
-40.038564 	42.463141 	42.017111 	42.010244 
-40.038544 	42.463142 	42.017111 	42.010244 
-40.038526 	42.463141 	42.017113 	42.010247 
-40.038509 	42.463136 	42.017115 	42.010249 
-40.038468 	42.463119 	42.017119 	42.010255 
-40.038428 	42.463115 	42.017124 	42.010260 
-40.038383 	42.463102 	42.017126 	42.010257 
-40.038322 	42.463106 	42.017124 	42.010254 
-40.038264 	42.463106 	42.017125 	42.010255 
-40.038213 	42.463118 	42.017132 	42.010264 
-40.038180 	42.463124 	42.017137 	42.010266 
-40.038160 	42.463124 	42.017138 	42.010267 
-40.038146 	42.463119 	42.017138 	42.010266 
-40.038138 	42.463109 	42.017140 	42.010270 
-40.038128 	42.463106 	42.017144 	42.010275 
-40.038138 	42.463102 	42.017157 	42.010294 
-40.038140 	42.463091 	42.017170 	42.010305 
-40.038119 	42.463090 	42.017164 	42.010299 
-40.038093 	42.463093 	42.017164 	42.010298 
-40.038060 	42.463089 	42.017165 	42.010296 
-40.038012 	42.463094 	42.017158 	42.010289 
-40.037957 	42.463106 	42.017153 	42.010283 
-40.037907 	42.463114 	42.017153 	42.010281 
-40.037855 	42.463121 	42.017150 	42.010279 
-40.037795 	42.463134 	42.017148 	42.010278 
-40.037736 	42.463152 	42.017148 	42.010278 
-40.037703 	42.463170 	42.017150 	42.010281 
-50.031699 	40.426090 	40.001942 	39.996727 
-50.031634 	40.426099 	40.001961 	39.996745 
-50.031567 	40.426108 	40.001978 	39.996764
-50.031500 	40.426138 	40.001997 	39.996783 
-50.031422 	40.426153 	40.002014 	39.996799 
-50.031340 	40.426166 	40.002029 	39.996815 
-50.031273 	40.426178 	40.002045 	39.996830 
-50.031219 	40.426193 	40.002061 	39.996845 
-50.031172 	40.426206 	40.002075 	39.996859
-50.031118 	40.426220 	40.002090 	39.996873 
-50.031071 	40.426229 	40.002103 	39.996886 
-50.031032 	40.426241 	40.002116 	39.996899 
-50.030997 	40.426254 	40.002127 	39.996910 
-50.030963 	40.426266 	40.002136 	39.996919 
-50.030929 	40.426277 	40.002145 	39.996928 
-50.030889 	40.426279 	40.002153 	39.996936 
-50.030839 	40.426284 	40.002160 	39.996944 
-50.030784 	40.426291 	40.002167 	39.996951 
-50.030726 	40.426298 	40.002175 	39.996959 
-50.030667 	40.426310 	40.002184 	39.996970 
-50.030579 	40.426322 	40.002194 	39.996980 
-50.030499 	40.426339 	40.002204 	39.996990 
-50.030418 	40.426352 	40.002215 	39.997002 
-50.030309 	40.426364 	40.002232 	39.997020 
-50.030207 	40.426380 	40.002249 	39.997037 
-50.030118 	40.426393 	40.002266 	39.997055 
-50.030009 	40.426397 	40.002284 	39.997074 
-50.029924 	40.426408 	40.002301 	39.997091 
-50.029848 	40.426442 	40.002319 	39.997111 
-50.029767 	40.426475 	40.002337 	39.997129 
-50.029697 	40.426498 	40.002354 	39.997146 
-50.029639 	40.426523 	40.002368 	39.997161 
-50.029601 	40.426539 	40.002381 	39.997172 
-50.029573 	40.426551 	40.002389 	39.997179 
-50.029557 	40.426566 	40.002396 	39.997187 
-50.029555 	40.426576 	40.002404 	39.997194 
-50.029569 	40.426582 	40.002409 	39.997197 
-50.029593 	40.426581 	40.002409 	39.997195 
-50.029630 	40.426584 	40.002405 	39.997190 
-50.029661 	40.426568 	40.002398 	39.997183 
-50.029693 	40.426545 	40.002392 	39.997177 
-50.029726 	40.426521 	40.002387 	39.997171 
-50.029768 	40.426509 	40.002383 	39.997166 
-50.029808 	40.426499 	40.002381 	39.997164 
-50.029842 	40.426491 	40.002380 	39.997164 
-50.029886 	40.426484 	40.002380 	39.997162 
-50.029944 	40.426483 	40.002376 	39.997158 
-50.029998 	40.426446 	40.002371 	39.997151 
-50.030047 	40.426429 	40.002364 	39.997143 
-50.030096 	40.426416 	40.002357 	39.997134 
-60.021055 	38.383687 	37.981463 	37.977870 
-60.021027 	38.383710 	37.981470 	37.977877 
-60.021021 	38.383731 	37.981478 	37.977884 
-60.021034 	38.383756 	37.981485 	37.977893 
-60.021033 	38.383782 	37.981491 	37.977899 
-60.020995 	38.383812 	37.981496 	37.977901 
-60.020955 	38.383841 	37.981497 	37.977901 
-60.020937 	38.383862 	37.981498 	37.977905 
-60.020909 	38.383879 	37.981500 	37.977907 
-60.020856 	38.383896 	37.981503 	37.977910 
-60.020804 	38.383896 	37.981507 	37.977914 
-60.020776 	38.383881 	37.981511 	37.977919 
-60.020744 	38.383877 	37.981514 	37.977923 
-60.020711 	38.383873 	37.981517 	37.977923 
-60.020669 	38.383873 	37.981518 	37.977926 
-60.020610 	38.383868 	37.981526 	37.977936 
-60.020557 	38.383865 	37.981538 	37.977948 
-60.020520 	38.383866 	37.981552 	37.977963 
-60.020508 	38.383871 	37.981565 	37.977977 
-60.020432 	38.383876 	37.981577 	37.977991 
-60.020380 	38.383883 	37.981591 	37.978005 
-60.020374 	38.383884 	37.981604 	37.978017 
-60.020354 	38.383890 	37.981614 	37.978026 
-60.020312 	38.383899 	37.981628 	37.978041 
-60.020284 	38.383916 	37.981642 	37.978054 
-60.020282 	38.383935 	37.981653 	37.978065
-60.020283 	38.383952 	37.981664 	37.978078 
-60.020307 	38.383970 	37.981676 	37.978090 
-60.020321 	38.383985 	37.981685 	37.978096
-60.020293 	38.384001 	37.981693 	37.978105 
-60.020252 	38.384009 	37.981706 	37.978118 
-60.020213 	38.384009 	37.981723 	37.978135 
-60.020172 	38.384009 	37.981737 	37.978148
-60.020139 	38.384011 	37.981749 	37.978160 
-60.020101 	38.384018 	37.981763 	37.978173 
-60.020075 	38.384027 	37.981772 	37.978184 
-60.020034 	38.384037 	37.981780 	37.978191 
-60.019976 	38.384051 	37.981788 	37.978199 
-60.019949 	38.384066 	37.981796 	37.978208 
-60.019949 	38.384081 	37.981803 	37.978217 
-60.019945 	38.384110 	37.981813 	37.978226 
-60.019928 	38.384153 	37.981822 	37.978235 
-60.019914 	38.384189 	37.981830 	37.978244 
-60.019921 	38.384224 	37.981837 	37.978252 
-60.019938 	38.384252 	37.981843 	37.978257 
-60.019965 	38.384277 	37.981844 	37.978257 
-60.019966 	38.384300 	37.981845 	37.978259 
-60.019952 	38.384317 	37.981845 	37.978258 
-60.019933 	38.384328 	37.981845 	37.978258 
-60.019926 	38.384339 	37.981845 	37.978257
